,index,Unnamed: 0,run_id,condition,view_history,rt,trial_type,trial_index,time_elapsed,PROLIFIC_PID,STUDY_ID,SESSION_ID,subject_id,session_id,response,question_order,phase,prompt,task,constraint
0,0,0,1,2,"[{""page_index"":0,""viewing_time"":11669.900000000373},{""page_index"":1,""viewing_time"":15082.400000000373},{""page_index"":2,""viewing_time"":12085.299999999814},{""page_index"":3,""viewing_time"":8159},{""page_index"":4,""viewing_time"":4056.5}]",51055.5,instructions,0,51065,73,6108ba2774a08a10c085bb41,610ac721e81f832357049a5e,61083f623522116ea15fdc05,610ac721e81f832357049a5e,"""","""","""","""","""",""""
1,1,1,1,2,"""",9576.6,survey-multi-choice,1,60648,73,6108ba2774a08a10c085bb41,610ac721e81f832357049a5e,61083f623522116ea15fdc05,610ac721e81f832357049a5e,"{""Q0"":""Plans to achieve goals."",""Q1"":""By writing text.""}","[0,1]","""","""","""",""""
2,2,2,1,2,"[{""page_index"":0,""viewing_time"":1834.4000000003725}]",1835.1,instructions,2,62497,73,6108ba2774a08a10c085bb41,610ac721e81f832357049a5e,61083f623522116ea15fdc05,610ac721e81f832357049a5e,"""","""","""","""","""",""""
3,3,3,1,2,"""",268375.4,survey-text,3,330916,73,6108ba2774a08a10c085bb41,610ac721e81f832357049a5e,61083f623522116ea15fdc05,610ac721e81f832357049a5e,"{""Plan"":""The best way to help someone win re-election without the use of marketing is through word-of-mouth. I would encourage my town mayor to volunteer in person for many local charities: especially charities that have a very public-facing image. Running in local 5ks for charity, helping build houses or shelters for the homeless or underprivileged, and volunteering at animal shelters are a few very public charities that would help boost my incumbent's image. Without the use of marketing, let the people of the town market the mayor themselves by photographing and sharing his/her good deeds. ""}","""",test,Help your local town mayor win re-election.,generate plans,"without using billboards, sporting events, fundraisers, a local chamber of commerce, small businesses, social media, a website, signs, rallies, flyers, or phones"
4,6,6,1,2,"""",313673.4,survey-text,5,892779,73,6108ba2774a08a10c085bb41,610ac721e81f832357049a5e,61083f623522116ea15fdc05,610ac721e81f832357049a5e,"{""Plan"":""Imaginary baseball with friends is a great way to experience the best game of one's life without requiring any actual athletic talent. Dungeons and Dragons is a game that exists entirely in the players' heads and has captured the minds of generations- so why not role play other sports? Toss an invisible ball to your friends and let them decide if it's a home run or a strike. Have the outfielders do an extended improvisational routine by quickly responding to each others' movements to decide the outs, homeruns, and strikes. Let the umpire play the role of Dungeon Master by narrating the activity from an advantageous point-of-view to keep all players on the same page. The possibilities are as endless as the players' imaginations and don't require one to be able to hit a ball at all.""}","""",test,Play baseball with your friends.,generate plans,"without using a bat, a baseball, gloves, a field, or markers"
5,7,7,1,2,"""",126892.3,survey-text,6,1019690,73,6108ba2774a08a10c085bb41,610ac721e81f832357049a5e,61083f623522116ea15fdc05,610ac721e81f832357049a5e,"{""Plan"":""The Dutch and Japanese have been wearing wooden shoes for centuries. A cobbler isn't necessary to make a satisfactory pair of shoes when carpenters and whittlers are also available. Cork is a soft material made from the bark of the cork tree and would be a natural insole for a pair of study wooden clogs.""}","""",test,Make a pair of new shoes.,generate plans,"without using leather, fabric, shoe laces, canvas, a guidebook, or a cobbler"
6,8,8,1,2,"""",248989.9,survey-text,7,1268689,73,6108ba2774a08a10c085bb41,610ac721e81f832357049a5e,61083f623522116ea15fdc05,610ac721e81f832357049a5e,"{""Plan"":""It's been said that wearing a hard hat and a reflective vest can get you into almost anywhere. Find the oldest-looking student at the school and outfit him with official-looking handyman gear. Send him into the school and have him begin moving the trophy case under the guise of responding to a potential water leak near the case. While appearing to work around the area, he can easily steal the trophy and replace it with a cheaper version. His equipment bag will be more than satisfactory to smuggle the trophy out without raising suspicion. ""}","""",test,Steal the championship trophy from behind your school's award case.,generate plans,"without using a hammer, a sledgehammer, a mask, spray foam, a backpack, a large bag, or another person"
7,9,9,1,2,"""",103842.4,survey-text,8,1372546,73,6108ba2774a08a10c085bb41,610ac721e81f832357049a5e,61083f623522116ea15fdc05,610ac721e81f832357049a5e,"{""Plan"":""Go to the beach and dig a hole as deep as you can. Bury your body in the sand and relax as the damp sand keeps you cool and the breeze (and sunscreen) keep the sun from burning your exposed head.""}","""",test,Cool down in a record-breaking heat wave.,generate plans,"without using an air conditioner, fans, washclothes, cold water, a bathtub, ice cubes, ice cream, popsicles, bottled water, or a deep freezer"
8,10,10,1,2,"""",173073.5,survey-text,9,1545654,73,6108ba2774a08a10c085bb41,610ac721e81f832357049a5e,61083f623522116ea15fdc05,610ac721e81f832357049a5e,"{""Plan"":""Find a group of local teenagers and pay them each a meager amount of money to help with your scheme. Assuming this is a two-story house, have some stationed on the ground, some in the next window up, and some on the roof (how they access the roof is entirely up to them). Have them pass the sofa from one floor to the other vertically, making sure there is never one person with the majority of the burden.""}","""",test,Get your sofa onto the roof of your house.,generate plans,"without using a pulley, a Genie lift, a protective plastic layer, a ladder, or a crane"
9,11,11,1,2,"[{""page_index"":0,""viewing_time"":2527.0999999996275},{""page_index"":1,""viewing_time"":10349.5}]",12879,instructions,10,1558537,73,6108ba2774a08a10c085bb41,610ac721e81f832357049a5e,61083f623522116ea15fdc05,610ac721e81f832357049a5e,"""","""","""","""","""",""""
10,12,12,1,2,"""",12738.8,survey-multi-choice,11,1571285,73,6108ba2774a08a10c085bb41,610ac721e81f832357049a5e,61083f623522116ea15fdc05,610ac721e81f832357049a5e,"{""Q0"":""How frequently you think people try to achieve each goal."",""Q1"":""By selecting an option from a multiple choice scale.""}","[0,1]","""","""","""",""""
11,13,13,1,2,"[{""page_index"":0,""viewing_time"":1433.2000000001863}]",1434,instructions,12,1572732,73,6108ba2774a08a10c085bb41,610ac721e81f832357049a5e,61083f623522116ea15fdc05,610ac721e81f832357049a5e,"""","""","""","""","""",""""
12,14,14,1,2,"""",11281.2,survey-likert,13,1584023,73,6108ba2774a08a10c085bb41,610ac721e81f832357049a5e,61083f623522116ea15fdc05,610ac721e81f832357049a5e,"{""freq"":4}",[0],"""",Help your local town mayor win re-election.,rate plans,"without using billboards, sporting events, fundraisers, a local chamber of commerce, small businesses, social media, a website, signs, rallies, flyers, or phones"
13,15,15,1,2,"""",17025.7,survey-likert,14,1601065,73,6108ba2774a08a10c085bb41,610ac721e81f832357049a5e,61083f623522116ea15fdc05,610ac721e81f832357049a5e,"{""freq"":2}",[0],"""",Take your dog for a walk.,rate plans,"without using a leash, a collar, plastic bags, water, socks, shoes, or athleisure"
14,16,16,1,2,"""",7900.8,survey-likert,15,1608988,73,6108ba2774a08a10c085bb41,610ac721e81f832357049a5e,61083f623522116ea15fdc05,610ac721e81f832357049a5e,"{""freq"":4}",[0],"""",Play baseball with your friends.,rate plans,"without using a bat, a baseball, gloves, a field, or markers"
15,17,17,1,2,"""",8891.6,survey-likert,16,1617895,73,6108ba2774a08a10c085bb41,610ac721e81f832357049a5e,61083f623522116ea15fdc05,610ac721e81f832357049a5e,"{""freq"":4}",[0],"""",Make a pair of new shoes.,rate plans,"without using leather, fabric, shoe laces, canvas, a guidebook, or a cobbler"
16,18,18,1,2,"""",21818.2,survey-likert,17,1639743,73,6108ba2774a08a10c085bb41,610ac721e81f832357049a5e,61083f623522116ea15fdc05,610ac721e81f832357049a5e,"{""freq"":5}",[0],"""",Steal the championship trophy from behind your school's award case.,rate plans,"without using a hammer, a sledgehammer, a mask, spray foam, a backpack, a large bag, or another person"
17,19,19,1,2,"""",9421.8,survey-likert,18,1649172,73,6108ba2774a08a10c085bb41,610ac721e81f832357049a5e,61083f623522116ea15fdc05,610ac721e81f832357049a5e,"{""freq"":2}",[0],"""",Cool down in a record-breaking heat wave.,rate plans,"without using an air conditioner, fans, washclothes, cold water, a bathtub, ice cubes, ice cream, popsicles, bottled water, or a deep freezer"
18,20,20,1,2,"""",7548,survey-likert,19,1656740,73,6108ba2774a08a10c085bb41,610ac721e81f832357049a5e,61083f623522116ea15fdc05,610ac721e81f832357049a5e,"{""freq"":5}",[0],"""",Get your sofa onto the roof of your house.,rate plans,"without using a pulley, a Genie lift, a protective plastic layer, a ladder, or a crane"
19,21,21,1,2,"""",91627.1,survey-text,20,1748386,73,6108ba2774a08a10c085bb41,610ac721e81f832357049a5e,61083f623522116ea15fdc05,610ac721e81f832357049a5e,"{""Q0"":""10"",""Q1"":""5"",""Q2"":""7"",""Q3"":""6"",""Q4"":""I tried to give fairly creative answers but, occasionally, I would type out an entire scenario only to realize it utilized one or more of the banned objects in the prompt. I suppose that proves the prompts were more difficult/impossible than I initially realized.""}","""","""","""","""",""""
20,22,22,12,3,"[{""page_index"":0,""viewing_time"":10364.10000000149},{""page_index"":1,""viewing_time"":8471.89999999851},{""page_index"":2,""viewing_time"":17447.79999999702},{""page_index"":3,""viewing_time"":11122.90000000596},{""page_index"":4,""viewing_time"":1510.5}]",48918.2,instructions,0,48926,80,6108ba2774a08a10c085bb41,610ac764362625e069ce2791,610988d4f729fb154a27a6c3,610ac764362625e069ce2791,"""","""","""","""","""",""""
21,23,23,12,3,"""",5889.1,survey-multi-choice,1,54822,80,6108ba2774a08a10c085bb41,610ac764362625e069ce2791,610988d4f729fb154a27a6c3,610ac764362625e069ce2791,"{""Q0"":""Plans to achieve goals."",""Q1"":""By writing text.""}","[0,1]","""","""","""",""""
22,24,24,12,3,"[{""page_index"":0,""viewing_time"":1265.7000000029802}]",1266.2,instructions,2,56093,80,6108ba2774a08a10c085bb41,610ac764362625e069ce2791,610988d4f729fb154a27a6c3,610ac764362625e069ce2791,"""","""","""","""","""",""""
23,25,25,12,3,"""",51965.8,survey-text,3,108070,80,6108ba2774a08a10c085bb41,610ac764362625e069ce2791,610988d4f729fb154a27a6c3,610ac764362625e069ce2791,"{""Plan"":""Research as much as possible about how to befriend a lion, then spend as much time as possible with said lion before actually attempting to remove the plaque.""}","""",test,Remove plaque from the teeth of a lion.,generate plans,"without using a tranquilizer, meat, a sleeping drug, or animal specialists"
24,26,26,12,3,"""",110235.7,survey-text,4,218312,80,6108ba2774a08a10c085bb41,610ac764362625e069ce2791,610988d4f729fb154a27a6c3,610ac764362625e069ce2791,"{""Plan"":""I guess you could use strips of a sturdy material that isn't wood and use some sort of carpet tape to piece the material together. Also, you didn't say that the bookshelf can't be virtual. So maybe just open up Ibooks or something lol""}","""",test,Build a bookshelf.,generate plans,"without using wood, planks, nails, gum, or books"
25,27,27,12,3,"""",46092.1,survey-text,5,264409,80,6108ba2774a08a10c085bb41,610ac764362625e069ce2791,610988d4f729fb154a27a6c3,610ac764362625e069ce2791,"{""Plan"":""I know nothing about the platupyus, but maybe try chasing it around like a dog. see if it gets excited?""}","""",test,Keep a baby platupyus entertained.,generate plans,"without using a ball, an aquarium, plastic fish, or a clown"
26,28,28,12,3,"""",80274.5,survey-text,6,344690,80,6108ba2774a08a10c085bb41,610ac764362625e069ce2791,610988d4f729fb154a27a6c3,610ac764362625e069ce2791,"{""Plan"":""I'd probably just go full on weird-o and grab a fork in between my elbows and use that to point at the item on the menu""}","""",test,"Order food in a restaurant, where you don't speak the native language.",generate plans,"without using a translator app, a human translator, your fingers, or sign language"
27,29,29,12,3,"""",52956.5,survey-text,7,397654,80,6108ba2774a08a10c085bb41,610ac764362625e069ce2791,610988d4f729fb154a27a6c3,610ac764362625e069ce2791,"{""Plan"":""I'm a big guy, so I would use my body weight and pretend my arm is a paddle""}","""",test,Stop your canoe from falling down the waterfall.,generate plans,"without using a paddle, a rock, or a rope"
28,30,30,12,3,"""",40622.3,survey-text,8,438281,80,6108ba2774a08a10c085bb41,610ac764362625e069ce2791,610988d4f729fb154a27a6c3,610ac764362625e069ce2791,"{""Plan"":""I would use a drill, which would eventually work after several passes in several different areas.""}","""",test,Cut down a tree.,generate plans,"without using a chainsaw, an axe, or a lorry"
29,31,31,12,3,"""",47300.6,survey-text,9,485588,80,6108ba2774a08a10c085bb41,610ac764362625e069ce2791,610988d4f729fb154a27a6c3,610ac764362625e069ce2791,"{""Plan"":""I would decorate it with any random crap I could find that could be thought of as cute""}","""",test,Decorate the world's largest Christmas tree.,generate plans,"without using lights, Christmas decorations, or fake leaves"
30,32,32,12,3,"[{""page_index"":0,""viewing_time"":1541.5},{""page_index"":1,""viewing_time"":12285.89999999851}]",13827.7,instructions,10,499417,80,6108ba2774a08a10c085bb41,610ac764362625e069ce2791,610988d4f729fb154a27a6c3,610ac764362625e069ce2791,"""","""","""","""","""",""""
31,33,33,12,3,"""",5521,survey-multi-choice,11,504942,80,6108ba2774a08a10c085bb41,610ac764362625e069ce2791,610988d4f729fb154a27a6c3,610ac764362625e069ce2791,"{""Q0"":""How frequently you think people try to achieve each goal."",""Q1"":""By selecting an option from a multiple choice scale.""}","[0,1]","""","""","""",""""
32,34,34,12,3,"[{""page_index"":0,""viewing_time"":1275.7999999970198}]",1276.2,instructions,12,506222,80,6108ba2774a08a10c085bb41,610ac764362625e069ce2791,610988d4f729fb154a27a6c3,610ac764362625e069ce2791,"""","""","""","""","""",""""
33,35,35,12,3,"""",11501.8,survey-likert,13,517728,80,6108ba2774a08a10c085bb41,610ac764362625e069ce2791,610988d4f729fb154a27a6c3,610ac764362625e069ce2791,"{""freq"":5}",[0],"""",Remove plaque from the teeth of a lion.,rate plans,"without using a tranquilizer, meat, a sleeping drug, or animal specialists"
34,36,36,12,3,"""",11653.3,survey-likert,14,529387,80,6108ba2774a08a10c085bb41,610ac764362625e069ce2791,610988d4f729fb154a27a6c3,610ac764362625e069ce2791,"{""freq"":3}",[0],"""",Build a bookshelf.,rate plans,"without using wood, planks, nails, gum, or books"
35,37,37,12,3,"""",10602.7,survey-likert,15,539998,80,6108ba2774a08a10c085bb41,610ac764362625e069ce2791,610988d4f729fb154a27a6c3,610ac764362625e069ce2791,"{""freq"":4}",[0],"""",Keep a baby platupyus entertained.,rate plans,"without using a ball, an aquarium, plastic fish, or a clown"
36,38,38,12,3,"""",5460,survey-likert,16,545463,80,6108ba2774a08a10c085bb41,610ac764362625e069ce2791,610988d4f729fb154a27a6c3,610ac764362625e069ce2791,"{""freq"":4}",[0],"""","Order food in a restaurant, where you don't speak the native language.",rate plans,"without using a translator app, a human translator, your fingers, or sign language"
37,39,39,12,3,"""",6827.1,survey-likert,17,552297,80,6108ba2774a08a10c085bb41,610ac764362625e069ce2791,610988d4f729fb154a27a6c3,610ac764362625e069ce2791,"{""freq"":3}",[0],"""",Stop your canoe from falling down the waterfall.,rate plans,"without using a paddle, a rock, or a rope"
38,40,40,12,3,"""",8482.6,survey-likert,18,560785,80,6108ba2774a08a10c085bb41,610ac764362625e069ce2791,610988d4f729fb154a27a6c3,610ac764362625e069ce2791,"{""freq"":3}",[0],"""",Cut down a tree.,rate plans,"without using a chainsaw, an axe, or a lorry"
39,41,41,12,3,"""",3601.6,survey-likert,19,564395,80,6108ba2774a08a10c085bb41,610ac764362625e069ce2791,610988d4f729fb154a27a6c3,610ac764362625e069ce2791,"{""freq"":3}",[0],"""",Decorate the world's largest Christmas tree.,rate plans,"without using lights, Christmas decorations, or fake leaves"
40,42,42,12,3,"""",19897.7,survey-text,20,584303,80,6108ba2774a08a10c085bb41,610ac764362625e069ce2791,610988d4f729fb154a27a6c3,610ac764362625e069ce2791,"{""Q0"":""10"",""Q1"":""10"",""Q2"":""5"",""Q3"":""4"",""Q4"":""}","""","""","""","""",""""
41,66,66,13,2,"[{""page_index"":0,""viewing_time"":3334.800000011921},{""page_index"":1,""viewing_time"":9364.799999952316},{""page_index"":2,""viewing_time"":3176.2000000476837},{""page_index"":3,""viewing_time"":9843.299999952316},{""page_index"":4,""viewing_time"":2399.400000035763}]",28119.1,instructions,0,28114,75,6108ba2774a08a10c085bb41,610ac769145e9db29dea38e3,6108630665c17a0512c95591,610ac769145e9db29dea38e3,"""","""","""","""","""",""""
42,67,67,13,2,"""",6790.3,survey-multi-choice,1,34906,75,6108ba2774a08a10c085bb41,610ac769145e9db29dea38e3,6108630665c17a0512c95591,610ac769145e9db29dea38e3,"{""Q0"":""Plans to achieve goals."",""Q1"":""By writing text.""}","[0,1]","""","""","""",""""
43,68,68,13,2,"[{""page_index"":0,""viewing_time"":1305.300000011921}]",1305.5,instructions,2,36213,75,6108ba2774a08a10c085bb41,610ac769145e9db29dea38e3,6108630665c17a0512c95591,610ac769145e9db29dea38e3,"""","""","""","""","""",""""
44,73,73,13,2,"""",280273.3,survey-text,5,1171213,75,6108ba2774a08a10c085bb41,610ac769145e9db29dea38e3,6108630665c17a0512c95591,610ac769145e9db29dea38e3,"{""Plan"":""Learn to pick locks by watching online videos. Also be aware of the trash pickup schedule at the school.  Pull the fire alarm to evacuate the building, pick the lock to the case, and escape by putting the trophy in a dumpster and return to pick up after hours when you will not be seen.""}","""",test,Steal the championship trophy from behind your school's award case.,generate plans,"without using a hammer, a sledgehammer, a mask, spray foam, a backpack, a large bag, or another person"
45,74,74,13,2,"""",345205.5,survey-text,6,1516411,75,6108ba2774a08a10c085bb41,610ac769145e9db29dea38e3,6108630665c17a0512c95591,610ac769145e9db29dea38e3,"{""Plan"":""use scissors to cut a sole out of rubber material the width and length of you foot.  cut a sock in a straight line from the top front of the ankle to the toe and lay flat over the rubber. Sew the sock into the rubber to create a footbed and cut off the excess.  Using rubber lacing, weave a strap that is long enough for to cross the shoe at the base of the toes and again at the thickest point of the foot when in the shoe.  Sew these straps into the rubber base.   ""}","""",test,Make a pair of new shoes.,generate plans,"without using leather, fabric, shoe laces, canvas, a guidebook, or a cobbler"
46,75,75,13,2,"""",400036.8,survey-text,7,1916465,75,6108ba2774a08a10c085bb41,610ac769145e9db29dea38e3,6108630665c17a0512c95591,610ac769145e9db29dea38e3,"{""Plan"":""Gather 26 of your closest friends and request they each bring several cinder blocks. Additionally gather bungee cords to wrap around the couch at as many points to lift it straight without tipping out. Create a set of stairs with the cinder blocks part way to the roof, at least high enough for people to climb up. Then have half of the group climb on the roof and half on the ground with the couch.  Have the first group bring the couch up the stairs, and then lift above their heads to the group on the roof.  The group on the roof will reach down and grab the bungee cords wrapped around the couch and use them to lift it up to the roof""}","""",test,Get your sofa onto the roof of your house.,generate plans,"without using a pulley, a Genie lift, a protective plastic layer, a ladder, or a crane"
47,76,76,13,2,"""",182409.8,survey-text,8,2098884,75,6108ba2774a08a10c085bb41,610ac769145e9db29dea38e3,6108630665c17a0512c95591,610ac769145e9db29dea38e3,"{""Plan"":""place dog on back end of treadmill at 0 speed and place treats on the front end so he will have to walk to get them.  Repeat several times.  Slowly repeat with increasing speed.  0.5mph, 1mph, 1.5mph until dog is understanding the concept.  Then set the treadmill speed of choice with the dog and sit on the floor in front of the treadmill and feed occasional treats to keep the dog interested\n""}","""",test,Take your dog for a walk.,generate plans,"without using a leash, a collar, plastic bags, water, socks, shoes, or athleisure"
48,77,77,13,2,"""",124781.2,survey-text,9,2223673,75,6108ba2774a08a10c085bb41,610ac769145e9db29dea38e3,6108630665c17a0512c95591,610ac769145e9db29dea38e3,"{""Plan"":""use a dehumidifier in the home to increase evaporation from your skin to cool down.  ""}","""",test,Cool down in a record-breaking heat wave.,generate plans,"without using an air conditioner, fans, washclothes, cold water, a bathtub, ice cubes, ice cream, popsicles, bottled water, or a deep freezer"
49,78,78,13,2,"[{""page_index"":0,""viewing_time"":2047.5999999642372},{""page_index"":1,""viewing_time"":8851.699999988079}]",10900.7,instructions,10,2234575,75,6108ba2774a08a10c085bb41,610ac769145e9db29dea38e3,6108630665c17a0512c95591,610ac769145e9db29dea38e3,"""","""","""","""","""",""""
50,79,79,13,2,"""",8588.8,survey-multi-choice,11,2243168,75,6108ba2774a08a10c085bb41,610ac769145e9db29dea38e3,6108630665c17a0512c95591,610ac769145e9db29dea38e3,"{""Q0"":""How frequently you think people try to achieve each goal."",""Q1"":""By selecting an option from a multiple choice scale.""}","[0,1]","""","""","""",""""
51,80,80,13,2,"[{""page_index"":0,""viewing_time"":1651.699999988079}]",1652.4,instructions,12,2244822,75,6108ba2774a08a10c085bb41,610ac769145e9db29dea38e3,6108630665c17a0512c95591,610ac769145e9db29dea38e3,"""","""","""","""","""",""""
52,81,81,13,2,"""",26556.6,survey-likert,13,2271383,75,6108ba2774a08a10c085bb41,610ac769145e9db29dea38e3,6108630665c17a0512c95591,610ac769145e9db29dea38e3,"{""freq"":2}",[0],"""",Play baseball with your friends.,rate plans,"without using a bat, a baseball, gloves, a field, or markers"
53,82,82,13,2,"""",19328,survey-likert,14,2290714,75,6108ba2774a08a10c085bb41,610ac769145e9db29dea38e3,6108630665c17a0512c95591,610ac769145e9db29dea38e3,"{""freq"":3}",[0],"""",Help your local town mayor win re-election.,rate plans,"without using billboards, sporting events, fundraisers, a local chamber of commerce, small businesses, social media, a website, signs, rallies, flyers, or phones"
54,83,83,13,2,"""",13135.9,survey-likert,15,2303854,75,6108ba2774a08a10c085bb41,610ac769145e9db29dea38e3,6108630665c17a0512c95591,610ac769145e9db29dea38e3,"{""freq"":3}",[0],"""",Steal the championship trophy from behind your school's award case.,rate plans,"without using a hammer, a sledgehammer, a mask, spray foam, a backpack, a large bag, or another person"
55,84,84,13,2,"""",15747.3,survey-likert,16,2319604,75,6108ba2774a08a10c085bb41,610ac769145e9db29dea38e3,6108630665c17a0512c95591,610ac769145e9db29dea38e3,"{""freq"":3}",[0],"""",Make a pair of new shoes.,rate plans,"without using leather, fabric, shoe laces, canvas, a guidebook, or a cobbler"
56,85,85,13,2,"""",8727.7,survey-likert,17,2328335,75,6108ba2774a08a10c085bb41,610ac769145e9db29dea38e3,6108630665c17a0512c95591,610ac769145e9db29dea38e3,"{""freq"":4}",[0],"""",Get your sofa onto the roof of your house.,rate plans,"without using a pulley, a Genie lift, a protective plastic layer, a ladder, or a crane"
57,86,86,13,2,"""",6973.7,survey-likert,18,2335312,75,6108ba2774a08a10c085bb41,610ac769145e9db29dea38e3,6108630665c17a0512c95591,610ac769145e9db29dea38e3,"{""freq"":3}",[0],"""",Take your dog for a walk.,rate plans,"without using a leash, a collar, plastic bags, water, socks, shoes, or athleisure"
58,87,87,13,2,"""",9094.1,survey-likert,19,2344410,75,6108ba2774a08a10c085bb41,610ac769145e9db29dea38e3,6108630665c17a0512c95591,610ac769145e9db29dea38e3,"{""freq"":3}",[0],"""",Cool down in a record-breaking heat wave.,rate plans,"without using an air conditioner, fans, washclothes, cold water, a bathtub, ice cubes, ice cream, popsicles, bottled water, or a deep freezer"
59,88,88,13,2,"""",62738.1,survey-text,20,2407135,75,6108ba2774a08a10c085bb41,610ac769145e9db29dea38e3,6108630665c17a0512c95591,610ac769145e9db29dea38e3,"{""Q0"":""9"",""Q1"":""5"",""Q2"":""5"",""Q3"":""2"",""Q4"":""For phase two, I wasn't sure if you meant globally or locally.""}","""","""","""","""",""""
60,89,89,17,4,"[{""page_index"":0,""viewing_time"":10220.09999999404},{""page_index"":1,""viewing_time"":10135.600000023842},{""page_index"":2,""viewing_time"":8280},{""page_index"":3,""viewing_time"":6840.0999999940395},{""page_index"":4,""viewing_time"":2063.7999999821186}]",37540.3,instructions,0,37547,70,6108ba2774a08a10c085bb41,610ac7706522b982dba7e4e6,61080e770015049d96187e01,610ac7706522b982dba7e4e6,"""","""","""","""","""",""""
61,90,90,17,4,"""",10027.3,survey-multi-choice,1,47579,70,6108ba2774a08a10c085bb41,610ac7706522b982dba7e4e6,61080e770015049d96187e01,610ac7706522b982dba7e4e6,"{""Q0"":""Plans to achieve goals."",""Q1"":""By writing text.""}","[0,1]","""","""","""",""""
62,91,91,17,4,"[{""page_index"":0,""viewing_time"":1669.7000000178814}]",1669.9,instructions,2,49250,70,6108ba2774a08a10c085bb41,610ac7706522b982dba7e4e6,61080e770015049d96187e01,610ac7706522b982dba7e4e6,"""","""","""","""","""",""""
63,92,92,17,4,"""",338560.8,survey-text,3,387819,70,6108ba2774a08a10c085bb41,610ac7706522b982dba7e4e6,61080e770015049d96187e01,610ac7706522b982dba7e4e6,"{""Plan"":""Using wind forecasts, speed of drop and direction hopefully we'll be able to narrow down a general location of where the skydiver will land. If possible, direct the skydiver to land in an area that is flat and relatively clear. The skydiver should spread out their arms and legs as much as possible to create some air resistance before help gets there. Once we know where the skydiver is landing, I suggest we use an inflatable cushion such as the ones used in fires, or emergency airplane landings. This will provide some cushioning for the skydiver, and keep the damage to a minimum.""}","""",test,Create a safe landing for a falling skydiver.,generate plans,"without using a net, drones, a safety flag, or a parachute"
64,93,93,17,4,"""",151493.3,survey-text,4,539315,70,6108ba2774a08a10c085bb41,610ac7706522b982dba7e4e6,61080e770015049d96187e01,610ac7706522b982dba7e4e6,"{""Plan"":""One way to do this, depending on the type of shark, could be to tag each of the sharks that live around the coast. This may be done by sedating the sharks first and then applying a tag (ideally without hurting the animal). Overtime, this will hopefully allow us to get an estimate of how many sharks live in the cove.""}","""",test,Find out how many sharks live in a cove off a nearby coast.,generate plans,"without using bait, an underwater camera, a submarine, a shark tracking app, red lines, or a danger-zone notice board"
65,94,94,17,4,"""",135956.7,survey-text,5,675275,70,6108ba2774a08a10c085bb41,610ac7706522b982dba7e4e6,61080e770015049d96187e01,610ac7706522b982dba7e4e6,"{""Plan"":""The easiest way to do this would be to build a fort on land that can survive the drop and conditions in water. Depending on how big the fort is, you can either break it into sections and assemble in the water, or use a boat to drop the fort into the water. Since it is easier to lift heavy objects in water there may be some leniency in constructing the fort. This would also depend on how deep underwater the fort must be. ""}","""",test,Make a fort underwater.,generate plans,"without using an oxygen tank, masks, swimming goggles, concrete, a miliary ship, a crane, a marine biologist, or a building engineer"
66,95,95,17,4,"""",154285.9,survey-text,6,829563,70,6108ba2774a08a10c085bb41,610ac7706522b982dba7e4e6,61080e770015049d96187e01,610ac7706522b982dba7e4e6,"{""Plan"":""I would buy a vitamin D lamp to mimic the attributes of the sun. Soil and fertilizer can be substituted using left over vegetables or compostables. Watermelon, tomatoes or other water heavy fruit could also provide enough moisture for the plant. To prevent herbicides, you can use vinegar. ""}","""",test,Keep the plants in your garden alive.,generate plans,"without using water, sun, a notebook, herbicides, or an umbrella"
67,96,96,17,4,"""",108756.6,survey-text,7,938323,70,6108ba2774a08a10c085bb41,610ac7706522b982dba7e4e6,61080e770015049d96187e01,610ac7706522b982dba7e4e6,"{""Plan"":""Using a paper towel, wipe all the extra left overs and sauce remnants off of the dishes. You can also use your fingers or a spoon to pick off the pieces that are stuck on the dish. To remove oil, you can use rubbing alcohol. ""}","""",test,Clean the dirty dishes.,generate plans,"without using soap, water, a tub, sanitizer, a sponge, detergent, a counter, or a dishwasher"
68,97,97,17,4,"""",49718,survey-text,8,988043,70,6108ba2774a08a10c085bb41,610ac7706522b982dba7e4e6,61080e770015049d96187e01,610ac7706522b982dba7e4e6,"{""Plan"":""Fire cannot exist without oxygen, so the best way to achieve this goal would be to grab a very thick heavy cloth and pat the flame out. ""}","""",test,Put out a fire that started near the wires from your TV.,generate plans,"without using a fire extinguisher, water, or a phone"
69,98,98,17,4,"""",158084.5,survey-text,9,1146131,70,6108ba2774a08a10c085bb41,610ac7706522b982dba7e4e6,61080e770015049d96187e01,610ac7706522b982dba7e4e6,"{""Plan"":""I have no idea. If it is a long term fix I would take it in to a friend who maybe knows more about fixing cars than I do. If it is a short term fix, honestly I would call my parents and ask to be picked up. I would probably grab duct tape or some sort of glue to glue the hole. Then I would use one of those machines that pushes air back into the tire to pump it to a level that will at least allow me to travel to wherever I need to be.""}","""",test,Fix a flat tire.,generate plans,"without using a spare tire, a car mechanic, a tow truck, a car jack, vulcanizing tools, or a pressure gauge"
70,99,99,17,4,"[{""page_index"":0,""viewing_time"":1591.199999988079},{""page_index"":1,""viewing_time"":3351.699999988079}]",4943.6,instructions,10,1151075,70,6108ba2774a08a10c085bb41,610ac7706522b982dba7e4e6,61080e770015049d96187e01,610ac7706522b982dba7e4e6,"""","""","""","""","""",""""
71,100,100,17,4,"""",5549.3,survey-multi-choice,11,1156627,70,6108ba2774a08a10c085bb41,610ac7706522b982dba7e4e6,61080e770015049d96187e01,610ac7706522b982dba7e4e6,"{""Q0"":""How frequently you think people try to achieve each goal."",""Q1"":""By writing text.""}","[0,1]","""","""","""",""""
72,101,101,17,4,"[{""page_index"":0,""viewing_time"":1446.199999988079},{""page_index"":1,""viewing_time"":2015.699999988079}]",3462.7,instructions,12,1160091,70,6108ba2774a08a10c085bb41,610ac7706522b982dba7e4e6,61080e770015049d96187e01,610ac7706522b982dba7e4e6,"""","""","""","""","""",""""
73,102,102,17,4,"""",3021.7,survey-multi-choice,13,1163115,70,6108ba2774a08a10c085bb41,610ac7706522b982dba7e4e6,61080e770015049d96187e01,610ac7706522b982dba7e4e6,"{""Q0"":""How frequently you think people try to achieve each goal."",""Q1"":""By selecting an option from a multiple choice scale.""}","[0,1]","""","""","""",""""
74,103,103,17,4,"[{""page_index"":0,""viewing_time"":751}]",751.2,instructions,14,1163867,70,6108ba2774a08a10c085bb41,610ac7706522b982dba7e4e6,61080e770015049d96187e01,610ac7706522b982dba7e4e6,"""","""","""","""","""",""""
75,104,104,17,4,"""",6222.7,survey-likert,15,1170091,70,6108ba2774a08a10c085bb41,610ac7706522b982dba7e4e6,61080e770015049d96187e01,610ac7706522b982dba7e4e6,"{""freq"":5}",[0],"""",Create a safe landing for a falling skydiver.,rate plans,"without using a net, drones, a safety flag, or a parachute"
76,105,105,17,4,"""",7236.7,survey-likert,16,1177331,70,6108ba2774a08a10c085bb41,610ac7706522b982dba7e4e6,61080e770015049d96187e01,610ac7706522b982dba7e4e6,"{""freq"":4}",[0],"""",Find out how many sharks live in a cove off a nearby coast.,rate plans,"without using bait, an underwater camera, a submarine, a shark tracking app, red lines, or a danger-zone notice board"
77,106,106,17,4,"""",5334.3,survey-likert,17,1182667,70,6108ba2774a08a10c085bb41,610ac7706522b982dba7e4e6,61080e770015049d96187e01,610ac7706522b982dba7e4e6,"{""freq"":5}",[0],"""",Make a fort underwater.,rate plans,"without using an oxygen tank, masks, swimming goggles, concrete, a miliary ship, a crane, a marine biologist, or a building engineer"
78,107,107,17,4,"""",8276.6,survey-likert,18,1190947,70,6108ba2774a08a10c085bb41,610ac7706522b982dba7e4e6,61080e770015049d96187e01,610ac7706522b982dba7e4e6,"{""freq"":3}",[0],"""",Keep the plants in your garden alive.,rate plans,"without using water, sun, a notebook, herbicides, or an umbrella"
79,108,108,17,4,"""",7078.1,survey-likert,19,1198027,70,6108ba2774a08a10c085bb41,610ac7706522b982dba7e4e6,61080e770015049d96187e01,610ac7706522b982dba7e4e6,"{""freq"":3}",[0],"""",Clean the dirty dishes.,rate plans,"without using soap, water, a tub, sanitizer, a sponge, detergent, a counter, or a dishwasher"
80,109,109,17,4,"""",5828.9,survey-likert,20,1203859,70,6108ba2774a08a10c085bb41,610ac7706522b982dba7e4e6,61080e770015049d96187e01,610ac7706522b982dba7e4e6,"{""freq"":3}",[0],"""",Put out a fire that started near the wires from your TV.,rate plans,"without using a fire extinguisher, water, or a phone"
81,110,110,17,4,"""",3550.1,survey-likert,21,1207411,70,6108ba2774a08a10c085bb41,610ac7706522b982dba7e4e6,61080e770015049d96187e01,610ac7706522b982dba7e4e6,"{""freq"":5}",[0],"""",Fix a flat tire.,rate plans,"without using a spare tire, a car mechanic, a tow truck, a car jack, vulcanizing tools, or a pressure gauge"
82,111,111,17,4,"""",15251.8,survey-text,22,1222667,70,6108ba2774a08a10c085bb41,610ac7706522b982dba7e4e6,61080e770015049d96187e01,610ac7706522b982dba7e4e6,"{""Q0"":""10"",""Q1"":""8"",""Q2"":""8"",""Q3"":""3"",""Q4"":""}","""","""","""","""",""""
83,112,112,22,3,"[{""page_index"":0,""viewing_time"":14397.099999964237},{""page_index"":1,""viewing_time"":40121.30000001192},{""page_index"":2,""viewing_time"":15431.300000011921},{""page_index"":3,""viewing_time"":9469.300000011921},{""page_index"":4,""viewing_time"":1963.199999988079}]",81383.7,instructions,0,81393,72,6108ba2774a08a10c085bb41,6113ddb5cdba5402d554d26c,61082348793aa05b4b9ac5a1,6113ddb5cdba5402d554d26c,"""","""","""","""","""",""""
84,113,113,22,3,"""",8139.6,survey-multi-choice,1,89541,72,6108ba2774a08a10c085bb41,6113ddb5cdba5402d554d26c,61082348793aa05b4b9ac5a1,6113ddb5cdba5402d554d26c,"{""Q0"":""Plans to achieve goals."",""Q1"":""By writing text.""}","[0,1]","""","""","""",""""
85,114,114,22,3,"[{""page_index"":0,""viewing_time"":38328.09999996424}]",38328.7,instructions,2,127873,72,6108ba2774a08a10c085bb41,6113ddb5cdba5402d554d26c,61082348793aa05b4b9ac5a1,6113ddb5cdba5402d554d26c,"""","""","""","""","""",""""
86,115,115,22,3,"""",194630.5,survey-text,3,322533,72,6108ba2774a08a10c085bb41,6113ddb5cdba5402d554d26c,61082348793aa05b4b9ac5a1,6113ddb5cdba5402d554d26c,"{""Plan"":""Ideally, you would want to train the lion to be still and follow instructions, but this would require you to build trust with the lion. If this is not feasible, you might have to hold the lion in place, perhaps with rope or something that can support the weight of a lion, to keep it in place. For example, wrapping a collar around the lion's neck that you can attach to a pole to make sure its head doesn't go beyond the length you set.""}","""",test,Remove plaque from the teeth of a lion.,generate plans,"without using a tranquilizer, meat, a sleeping drug, or animal specialists"
87,116,116,22,3,"""",197897.8,survey-text,4,520453,72,6108ba2774a08a10c085bb41,6113ddb5cdba5402d554d26c,61082348793aa05b4b9ac5a1,6113ddb5cdba5402d554d26c,"{""Plan"":""If possible, you can try maneuvering the boat with your body weight to try and get it near land, so that you can get out the canoe and hold the canoe in place to try and hoist it out the water. If this doesn't work, the riskier plan is to go into the water and push the canoe to land, so that you can get to land and hoist the canoe that way.""}","""",test,Stop your canoe from falling down the waterfall.,generate plans,"without using a paddle, a rock, or a rope"
88,117,117,22,3,"""",134244.1,survey-text,5,654705,72,6108ba2774a08a10c085bb41,6113ddb5cdba5402d554d26c,61082348793aa05b4b9ac5a1,6113ddb5cdba5402d554d26c,"{""Plan"":""You can try sprinkling glitter around the tree so that when the sun shines on it, it lights up the tree. You can also decorate it with paper star origami, with a wish written on the paper. It may take a lot, but it would be cool.""}","""",test,Decorate the world's largest Christmas tree.,generate plans,"without using lights, Christmas decorations, or fake leaves"
89,118,118,22,3,"""",63136.3,survey-text,6,717847,72,6108ba2774a08a10c085bb41,6113ddb5cdba5402d554d26c,61082348793aa05b4b9ac5a1,6113ddb5cdba5402d554d26c,"{""Plan"":""Convince a beaver, if there's one around, to chew off the tree you plan to cut down. It might take some time, but it should eventually come down. Make sure to prepare for taking the tree before the beaver does.""}","""",test,Cut down a tree.,generate plans,"without using a chainsaw, an axe, or a lorry"
90,119,119,22,3,"""",80447.8,survey-text,7,798306,72,6108ba2774a08a10c085bb41,6113ddb5cdba5402d554d26c,61082348793aa05b4b9ac5a1,6113ddb5cdba5402d554d26c,"{""Plan"":""Place it in a small pool and swim with it, or splash some water around it with your hand.""}","""",test,Keep a baby platupyus entertained.,generate plans,"without using a ball, an aquarium, plastic fish, or a clown"
91,120,120,22,3,"""",91606.1,survey-text,8,889918,72,6108ba2774a08a10c085bb41,6113ddb5cdba5402d554d26c,61082348793aa05b4b9ac5a1,6113ddb5cdba5402d554d26c,"{""Plan"":""You can try staring intensely at an item you want on the menu, or using your elbow to point at the things you want.""}","""",test,"Order food in a restaurant, where you don't speak the native language.",generate plans,"without using a translator app, a human translator, your fingers, or sign language"
92,121,121,22,3,"""",100912.4,survey-text,9,990838,72,6108ba2774a08a10c085bb41,6113ddb5cdba5402d554d26c,61082348793aa05b4b9ac5a1,6113ddb5cdba5402d554d26c,"{""Plan"":""Learn how to work with metal, and build a bookshelf by melding metal together until it resembles a bookshelf. I believe it doesn't have to be a big shelf, perhaps with 4 quadrants of space to put books in. It wouldn't require nails as it would be shaped and melded.""}","""",test,Build a bookshelf.,generate plans,"without using wood, planks, nails, gum, or books"
93,122,122,22,3,"[{""page_index"":0,""viewing_time"":2449.7000000476837},{""page_index"":1,""viewing_time"":10608}]",13059.5,instructions,10,1003899,72,6108ba2774a08a10c085bb41,6113ddb5cdba5402d554d26c,61082348793aa05b4b9ac5a1,6113ddb5cdba5402d554d26c,"""","""","""","""","""",""""
94,123,123,22,3,"""",9908,survey-multi-choice,11,1013815,72,6108ba2774a08a10c085bb41,6113ddb5cdba5402d554d26c,61082348793aa05b4b9ac5a1,6113ddb5cdba5402d554d26c,"{""Q0"":""How frequently you think people try to achieve each goal."",""Q1"":""By selecting an option from a multiple choice scale.""}","[0,1]","""","""","""",""""
95,124,124,22,3,"[{""page_index"":0,""viewing_time"":1625.3999999761581}]",1625.9,instructions,12,1015443,72,6108ba2774a08a10c085bb41,6113ddb5cdba5402d554d26c,61082348793aa05b4b9ac5a1,6113ddb5cdba5402d554d26c,"""","""","""","""","""",""""
96,125,125,22,3,"""",18864.5,survey-likert,13,1034312,72,6108ba2774a08a10c085bb41,6113ddb5cdba5402d554d26c,61082348793aa05b4b9ac5a1,6113ddb5cdba5402d554d26c,"{""freq"":5}",[0],"""",Remove plaque from the teeth of a lion.,rate plans,"without using a tranquilizer, meat, a sleeping drug, or animal specialists"
97,126,126,22,3,"""",17477.7,survey-likert,14,1051794,72,6108ba2774a08a10c085bb41,6113ddb5cdba5402d554d26c,61082348793aa05b4b9ac5a1,6113ddb5cdba5402d554d26c,"{""freq"":5}",[0],"""",Stop your canoe from falling down the waterfall.,rate plans,"without using a paddle, a rock, or a rope"
98,127,127,22,3,"""",15212.3,survey-likert,15,1067014,72,6108ba2774a08a10c085bb41,6113ddb5cdba5402d554d26c,61082348793aa05b4b9ac5a1,6113ddb5cdba5402d554d26c,"{""freq"":3}",[0],"""",Decorate the world's largest Christmas tree.,rate plans,"without using lights, Christmas decorations, or fake leaves"
99,128,128,22,3,"""",5296.7,survey-likert,16,1072315,72,6108ba2774a08a10c085bb41,6113ddb5cdba5402d554d26c,61082348793aa05b4b9ac5a1,6113ddb5cdba5402d554d26c,"{""freq"":5}",[0],"""",Cut down a tree.,rate plans,"without using a chainsaw, an axe, or a lorry"
100,129,129,22,3,"""",9408,survey-likert,17,1081730,72,6108ba2774a08a10c085bb41,6113ddb5cdba5402d554d26c,61082348793aa05b4b9ac5a1,6113ddb5cdba5402d554d26c,"{""freq"":3}",[0],"""",Keep a baby platupyus entertained.,rate plans,"without using a ball, an aquarium, plastic fish, or a clown"
101,130,130,22,3,"""",6309.5,survey-likert,18,1088044,72,6108ba2774a08a10c085bb41,6113ddb5cdba5402d554d26c,61082348793aa05b4b9ac5a1,6113ddb5cdba5402d554d26c,"{""freq"":6}",[0],"""","Order food in a restaurant, where you don't speak the native language.",rate plans,"without using a translator app, a human translator, your fingers, or sign language"
102,131,131,22,3,"""",7749.1,survey-likert,19,1095801,72,6108ba2774a08a10c085bb41,6113ddb5cdba5402d554d26c,61082348793aa05b4b9ac5a1,6113ddb5cdba5402d554d26c,"{""freq"":2}",[0],"""",Build a bookshelf.,rate plans,"without using wood, planks, nails, gum, or books"
103,132,132,22,3,"""",25999.6,survey-text,20,1121812,72,6108ba2774a08a10c085bb41,6113ddb5cdba5402d554d26c,61082348793aa05b4b9ac5a1,6113ddb5cdba5402d554d26c,"{""Q0"":""9"",""Q1"":""8"",""Q2"":""9"",""Q3"":""6"",""Q4"":""}","""","""","""","""",""""
104,133,133,14,4,"[{""page_index"":0,""viewing_time"":5820.699999988079},{""page_index"":1,""viewing_time"":2608.800000011921},{""page_index"":2,""viewing_time"":8450.399999976158},{""page_index"":3,""viewing_time"":8751},{""page_index"":4,""viewing_time"":1799.6000000238419}]",27432.7,instructions,0,27442,77,6108ba2774a08a10c085bb41,610ac76a18dd2c0312e47539,6108c32fe7d5ac1ea4268ebe,610ac76a18dd2c0312e47539,"""","""","""","""","""",""""
105,134,134,14,4,"""",13065.5,survey-multi-choice,1,40522,77,6108ba2774a08a10c085bb41,610ac76a18dd2c0312e47539,6108c32fe7d5ac1ea4268ebe,610ac76a18dd2c0312e47539,"{""Q0"":""Plans to achieve goals."",""Q1"":""By writing text.""}","[0,1]","""","""","""",""""
106,135,135,14,4,"[{""page_index"":0,""viewing_time"":1884.6000000238419}]",1885.4,instructions,2,42413,77,6108ba2774a08a10c085bb41,610ac76a18dd2c0312e47539,6108c32fe7d5ac1ea4268ebe,610ac76a18dd2c0312e47539,"""","""","""","""","""",""""
107,136,136,14,4,"""",298002.8,survey-text,3,340484,77,6108ba2774a08a10c085bb41,610ac76a18dd2c0312e47539,6108c32fe7d5ac1ea4268ebe,610ac76a18dd2c0312e47539,"{""Plan"":""an emergency giant deep pit filled with packing peanuts with ladders on the side so he can climb out and escape""}","""",test,Create a safe landing for a falling skydiver.,generate plans,"without using a net, drones, a safety flag, or a parachute"
108,137,137,14,4,"""",103925.4,survey-text,4,444429,77,6108ba2774a08a10c085bb41,610ac76a18dd2c0312e47539,6108c32fe7d5ac1ea4268ebe,610ac76a18dd2c0312e47539,"{""Plan"":""use a team in a helicopter to fly over the cove and monitor shark activity. measure size and type of shark. ""}","""",test,Find out how many sharks live in a cove off a nearby coast.,generate plans,"without using bait, an underwater camera, a submarine, a shark tracking app, red lines, or a danger-zone notice board"
109,138,138,14,4,"""",58470.9,survey-text,5,502918,77,6108ba2774a08a10c085bb41,610ac76a18dd2c0312e47539,6108c32fe7d5ac1ea4268ebe,610ac76a18dd2c0312e47539,"{""Plan"":""the garden will be watered by the rain. install grow lights to simulate the sun""}","""",test,Keep the plants in your garden alive.,generate plans,"without using water, sun, a notebook, herbicides, or an umbrella"
110,139,139,14,4,"""",132022.4,survey-text,6,634954,77,6108ba2774a08a10c085bb41,610ac76a18dd2c0312e47539,6108c32fe7d5ac1ea4268ebe,610ac76a18dd2c0312e47539,"{""Plan"":""find the hole and patch it with a tire patch/spray. use the air compressor in your trunk to inflate to a level that seems similar to the rest of your tires. ""}","""",test,Fix a flat tire.,generate plans,"without using a spare tire, a car mechanic, a tow truck, a car jack, vulcanizing tools, or a pressure gauge"
111,140,140,14,4,"""",36176.9,survey-text,7,671148,77,6108ba2774a08a10c085bb41,610ac76a18dd2c0312e47539,6108c32fe7d5ac1ea4268ebe,610ac76a18dd2c0312e47539,"{""Plan"":""place a thick blanket over top to prevent oxygen from reaching the fire and pat. ""}","""",test,Put out a fire that started near the wires from your TV.,generate plans,"without using a fire extinguisher, water, or a phone"
112,141,141,14,4,"""",82391.9,survey-text,8,753550,77,6108ba2774a08a10c085bb41,610ac76a18dd2c0312e47539,6108c32fe7d5ac1ea4268ebe,610ac76a18dd2c0312e47539,"{""Plan"":""wipe off the big pieces with a cloth or papertowel. lick the rest clean. use rubbing alcohol to clean the rest and dry.""}","""",test,Clean the dirty dishes.,generate plans,"without using soap, water, a tub, sanitizer, a sponge, detergent, a counter, or a dishwasher"
113,142,142,14,4,"""",104135,survey-text,9,857702,77,6108ba2774a08a10c085bb41,610ac76a18dd2c0312e47539,6108c32fe7d5ac1ea4268ebe,610ac76a18dd2c0312e47539,"{""Plan"":""make an airtight container on dry land and drop it in to the ocean. connect it to a tunnel built down into the water. ""}","""",test,Make a fort underwater.,generate plans,"without using an oxygen tank, masks, swimming goggles, concrete, a miliary ship, a crane, a marine biologist, or a building engineer"
114,143,143,14,4,"[{""page_index"":0,""viewing_time"":1869.3999999761581},{""page_index"":1,""viewing_time"":7875.800000011921}]",9746,instructions,10,867450,77,6108ba2774a08a10c085bb41,610ac76a18dd2c0312e47539,6108c32fe7d5ac1ea4268ebe,610ac76a18dd2c0312e47539,"""","""","""","""","""",""""
115,144,144,14,4,"""",23180.7,survey-multi-choice,11,890638,77,6108ba2774a08a10c085bb41,610ac76a18dd2c0312e47539,6108c32fe7d5ac1ea4268ebe,610ac76a18dd2c0312e47539,"{""Q0"":""The goodness of plans."",""Q1"":""By selecting an option from a multiple choice scale.""}","[0,1]","""","""","""",""""
116,145,145,14,4,"[{""page_index"":0,""viewing_time"":1565.5},{""page_index"":1,""viewing_time"":7908.600000023842}]",9474.9,instructions,12,900116,77,6108ba2774a08a10c085bb41,610ac76a18dd2c0312e47539,6108c32fe7d5ac1ea4268ebe,610ac76a18dd2c0312e47539,"""","""","""","""","""",""""
117,146,146,14,4,"""",6303.7,survey-multi-choice,13,906427,77,6108ba2774a08a10c085bb41,610ac76a18dd2c0312e47539,6108c32fe7d5ac1ea4268ebe,610ac76a18dd2c0312e47539,"{""Q0"":""How frequently you think people try to achieve each goal."",""Q1"":""By selecting an option from a multiple choice scale.""}","[0,1]","""","""","""",""""
118,147,147,14,4,"[{""page_index"":0,""viewing_time"":1213.300000011921}]",1214.2,instructions,14,907643,77,6108ba2774a08a10c085bb41,610ac76a18dd2c0312e47539,6108c32fe7d5ac1ea4268ebe,610ac76a18dd2c0312e47539,"""","""","""","""","""",""""
119,148,148,14,4,"""",12744.8,survey-likert,15,920399,77,6108ba2774a08a10c085bb41,610ac76a18dd2c0312e47539,6108c32fe7d5ac1ea4268ebe,610ac76a18dd2c0312e47539,"{""freq"":4}",[0],"""",Create a safe landing for a falling skydiver.,rate plans,"without using a net, drones, a safety flag, or a parachute"
120,149,149,14,4,"""",24836.2,survey-likert,16,945243,77,6108ba2774a08a10c085bb41,610ac76a18dd2c0312e47539,6108c32fe7d5ac1ea4268ebe,610ac76a18dd2c0312e47539,"{""freq"":4}",[0],"""",Find out how many sharks live in a cove off a nearby coast.,rate plans,"without using bait, an underwater camera, a submarine, a shark tracking app, red lines, or a danger-zone notice board"
121,150,150,14,4,"""",5654.8,survey-likert,17,950903,77,6108ba2774a08a10c085bb41,610ac76a18dd2c0312e47539,6108c32fe7d5ac1ea4268ebe,610ac76a18dd2c0312e47539,"{""freq"":6}",[0],"""",Keep the plants in your garden alive.,rate plans,"without using water, sun, a notebook, herbicides, or an umbrella"
122,151,151,14,4,"""",11246.8,survey-likert,18,962153,77,6108ba2774a08a10c085bb41,610ac76a18dd2c0312e47539,6108c32fe7d5ac1ea4268ebe,610ac76a18dd2c0312e47539,"{""freq"":3}",[0],"""",Fix a flat tire.,rate plans,"without using a spare tire, a car mechanic, a tow truck, a car jack, vulcanizing tools, or a pressure gauge"
123,152,152,14,4,"""",5558.3,survey-likert,19,967722,77,6108ba2774a08a10c085bb41,610ac76a18dd2c0312e47539,6108c32fe7d5ac1ea4268ebe,610ac76a18dd2c0312e47539,"{""freq"":2}",[0],"""",Put out a fire that started near the wires from your TV.,rate plans,"without using a fire extinguisher, water, or a phone"
124,153,153,14,4,"""",5013.3,survey-likert,20,972742,77,6108ba2774a08a10c085bb41,610ac76a18dd2c0312e47539,6108c32fe7d5ac1ea4268ebe,610ac76a18dd2c0312e47539,"{""freq"":2}",[0],"""",Clean the dirty dishes.,rate plans,"without using soap, water, a tub, sanitizer, a sponge, detergent, a counter, or a dishwasher"
125,154,154,14,4,"""",3996.2,survey-likert,21,976749,77,6108ba2774a08a10c085bb41,610ac76a18dd2c0312e47539,6108c32fe7d5ac1ea4268ebe,610ac76a18dd2c0312e47539,"{""freq"":5}",[0],"""",Make a fort underwater.,rate plans,"without using an oxygen tank, masks, swimming goggles, concrete, a miliary ship, a crane, a marine biologist, or a building engineer"
126,155,155,14,4,"""",21417,survey-text,22,998194,77,6108ba2774a08a10c085bb41,610ac76a18dd2c0312e47539,6108c32fe7d5ac1ea4268ebe,610ac76a18dd2c0312e47539,"{""Q0"":""10"",""Q1"":""9"",""Q2"":""10"",""Q3"":""5"",""Q4"":""no""}","""","""","""","""",""""
127,179,179,24,2,"[{""page_index"":0,""viewing_time"":9695.600000023842},{""page_index"":1,""viewing_time"":18150.399999976158},{""page_index"":2,""viewing_time"":10612.600000023842},{""page_index"":3,""viewing_time"":14022.699999928474},{""page_index"":4,""viewing_time"":13772.800000071526}]",66255.1,instructions,0,66275,67,6108ba2774a08a10c085bb41,6113ddb68709badb4d552cfe,610049da8150fc6d3e6d6edc,6113ddb68709badb4d552cfe,"""","""","""","""","""",""""
128,180,180,24,2,"""",6342.3,survey-multi-choice,1,72626,67,6108ba2774a08a10c085bb41,6113ddb68709badb4d552cfe,610049da8150fc6d3e6d6edc,6113ddb68709badb4d552cfe,"{""Q0"":""Plans to achieve goals."",""Q1"":""By writing text.""}","[0,1]","""","""","""",""""
129,181,181,24,2,"[{""page_index"":0,""viewing_time"":1957.5}]",1958.4,instructions,2,74590,67,6108ba2774a08a10c085bb41,6113ddb68709badb4d552cfe,610049da8150fc6d3e6d6edc,6113ddb68709badb4d552cfe,"""","""","""","""","""",""""
130,182,182,24,2,"""",183548.7,survey-text,3,258203,67,6108ba2774a08a10c085bb41,6113ddb68709badb4d552cfe,610049da8150fc6d3e6d6edc,6113ddb68709badb4d552cfe,"{""Plan"":""A few days before you move the sofa onto the roof, gather a group of two to three people who will be willing to help you that day. Also, obtain a strong, sturdy rope. On the day of putting the sofa on the roof, tie the rope around the sofa. Have three of the people on the roof pulling the sofa up onto the roof and you and/or someone else monitoring from the ground.""}","""",test,Get your sofa onto the roof of your house.,generate plans,"without using a pulley, a Genie lift, a protective plastic layer, a ladder, or a crane"
131,183,183,24,2,"""",165474.7,survey-text,4,423694,67,6108ba2774a08a10c085bb41,6113ddb68709badb4d552cfe,610049da8150fc6d3e6d6edc,6113ddb68709badb4d552cfe,"{""Plan"":""Get two large leaves to act as the sole of your new shoes. If the leaves are too big for your feet, trim them by tearing the leaves. Get a few thinner, longer leaves to secure the leaves to the bottom of your feet by wrapping the thinner leaves around your foot with the bigger leaves on the soles of your feet.""}","""",test,Make a pair of new shoes.,generate plans,"without using leather, fabric, shoe laces, canvas, a guidebook, or a cobbler"
132,184,184,24,2,"""",99750.2,survey-text,5,523467,67,6108ba2774a08a10c085bb41,6113ddb68709badb4d552cfe,610049da8150fc6d3e6d6edc,6113ddb68709badb4d552cfe,"{""Plan"":""Gather supporters of the town mayor. Have these supporters go door to door and explain how the mayor's actions impacted their lives and why the mayor is the best choice for the town.""}","""",test,Help your local town mayor win re-election.,generate plans,"without using billboards, sporting events, fundraisers, a local chamber of commerce, small businesses, social media, a website, signs, rallies, flyers, or phones"
133,185,185,24,2,"""",85686.5,survey-text,6,609161,67,6108ba2774a08a10c085bb41,6113ddb68709badb4d552cfe,610049da8150fc6d3e6d6edc,6113ddb68709badb4d552cfe,"{""Plan"":""From your house, walk your dog around the living room, hallway, and each room. Reward him with a treat at the end of the walk to show a job well done.""}","""",test,Take your dog for a walk.,generate plans,"without using a leash, a collar, plastic bags, water, socks, shoes, or athleisure"
134,186,186,24,2,"""",181338.9,survey-text,7,790519,67,6108ba2774a08a10c085bb41,6113ddb68709badb4d552cfe,610049da8150fc6d3e6d6edc,6113ddb68709badb4d552cfe,"{""Plan"":""To cool down in record-breaking heat, find a pool or a body of water and get in it. The water will be a cooler temperature than the air. Additionally, getting out of the water and into a breeze will feel very relieving from the heat. Additionally, you can find a tile floor, lift up your shirt, and lay down on the floor facing up. The floor will be a cooler temperature and will cool you down.""}","""",test,Cool down in a record-breaking heat wave.,generate plans,"without using an air conditioner, fans, washclothes, cold water, a bathtub, ice cubes, ice cream, popsicles, bottled water, or a deep freezer"
135,187,187,24,2,"""",123467.5,survey-text,8,913996,67,6108ba2774a08a10c085bb41,6113ddb68709badb4d552cfe,610049da8150fc6d3e6d6edc,6113ddb68709badb4d552cfe,"{""Plan"":""Get friendly with maintenance/whoever had the key to the case. Subtly find out where they keep the key to the case. Obtain the key when the person is not looking. Steal the trophy.""}","""",test,Steal the championship trophy from behind your school's award case.,generate plans,"without using a hammer, a sledgehammer, a mask, spray foam, a backpack, a large bag, or another person"
136,190,190,24,2,"[{""page_index"":0,""viewing_time"":8477.600000023842},{""page_index"":1,""viewing_time"":36141.700000047684}]",44620.4,instructions,10,1032681,67,6108ba2774a08a10c085bb41,6113ddb68709badb4d552cfe,610049da8150fc6d3e6d6edc,6113ddb68709badb4d552cfe,"""","""","""","""","""",""""
137,191,191,24,2,"""",5241.1,survey-multi-choice,11,1037933,67,6108ba2774a08a10c085bb41,6113ddb68709badb4d552cfe,610049da8150fc6d3e6d6edc,6113ddb68709badb4d552cfe,"{""Q0"":""How frequently you think people try to achieve each goal."",""Q1"":""By selecting an option from a multiple choice scale.""}","[0,1]","""","""","""",""""
138,192,192,24,2,"[{""page_index"":0,""viewing_time"":6735.5}]",6736.5,instructions,12,1044673,67,6108ba2774a08a10c085bb41,6113ddb68709badb4d552cfe,610049da8150fc6d3e6d6edc,6113ddb68709badb4d552cfe,"""","""","""","""","""",""""
139,193,193,24,2,"""",15618,survey-likert,13,1060304,67,6108ba2774a08a10c085bb41,6113ddb68709badb4d552cfe,610049da8150fc6d3e6d6edc,6113ddb68709badb4d552cfe,"{""freq"":3}",[0],"""",Get your sofa onto the roof of your house.,rate plans,"without using a pulley, a Genie lift, a protective plastic layer, a ladder, or a crane"
140,194,194,24,2,"""",56393.8,survey-likert,14,1116706,67,6108ba2774a08a10c085bb41,6113ddb68709badb4d552cfe,610049da8150fc6d3e6d6edc,6113ddb68709badb4d552cfe,"{""freq"":4}",[0],"""",Make a pair of new shoes.,rate plans,"without using leather, fabric, shoe laces, canvas, a guidebook, or a cobbler"
141,195,195,24,2,"""",10311.3,survey-likert,15,1127032,67,6108ba2774a08a10c085bb41,6113ddb68709badb4d552cfe,610049da8150fc6d3e6d6edc,6113ddb68709badb4d552cfe,"{""freq"":5}",[0],"""",Help your local town mayor win re-election.,rate plans,"without using billboards, sporting events, fundraisers, a local chamber of commerce, small businesses, social media, a website, signs, rallies, flyers, or phones"
142,196,196,24,2,"""",7082.5,survey-likert,16,1134124,67,6108ba2774a08a10c085bb41,6113ddb68709badb4d552cfe,610049da8150fc6d3e6d6edc,6113ddb68709badb4d552cfe,"{""freq"":3}",[0],"""",Take your dog for a walk.,rate plans,"without using a leash, a collar, plastic bags, water, socks, shoes, or athleisure"
143,197,197,24,2,"""",35295.4,survey-likert,17,1169437,67,6108ba2774a08a10c085bb41,6113ddb68709badb4d552cfe,610049da8150fc6d3e6d6edc,6113ddb68709badb4d552cfe,"{""freq"":3}",[0],"""",Cool down in a record-breaking heat wave.,rate plans,"without using an air conditioner, fans, washclothes, cold water, a bathtub, ice cubes, ice cream, popsicles, bottled water, or a deep freezer"
144,198,198,24,2,"""",6577.6,survey-likert,18,1176023,67,6108ba2774a08a10c085bb41,6113ddb68709badb4d552cfe,610049da8150fc6d3e6d6edc,6113ddb68709badb4d552cfe,"{""freq"":5}",[0],"""",Steal the championship trophy from behind your school's award case.,rate plans,"without using a hammer, a sledgehammer, a mask, spray foam, a backpack, a large bag, or another person"
145,199,199,24,2,"""",18815.5,survey-likert,19,1194853,67,6108ba2774a08a10c085bb41,6113ddb68709badb4d552cfe,610049da8150fc6d3e6d6edc,6113ddb68709badb4d552cfe,"{""freq"":2}",[0],"""",Play baseball with your friends.,rate plans,"without using a bat, a baseball, gloves, a field, or markers"
146,200,200,24,2,"""",41861.3,survey-text,20,1236732,67,6108ba2774a08a10c085bb41,6113ddb68709badb4d552cfe,610049da8150fc6d3e6d6edc,6113ddb68709badb4d552cfe,"{""Q0"":""10"",""Q1"":""7"",""Q2"":""8"",""Q3"":""5"",""Q4"":""Good luck with your research!""}","""","""","""","""",""""
147,201,201,18,1,"[{""page_index"":0,""viewing_time"":6987.200000017881},{""page_index"":1,""viewing_time"":1514.699999988079},{""page_index"":2,""viewing_time"":8832},{""page_index"":3,""viewing_time"":1020.9000000059605},{""page_index"":4,""viewing_time"":1377.199999988079}]",19732.9,instructions,0,19739,69,6108ba2774a08a10c085bb41,610ac7899a1b20066c0eb887,6107854906aaecb1febb6f3b,610ac7899a1b20066c0eb887,"""","""","""","""","""",""""
148,202,202,18,1,"""",20443.2,survey-multi-choice,1,40188,69,6108ba2774a08a10c085bb41,610ac7899a1b20066c0eb887,6107854906aaecb1febb6f3b,610ac7899a1b20066c0eb887,"{""Q0"":""Plans to achieve goals."",""Q1"":""By writing text.""}","[0,1]","""","""","""",""""
149,203,203,18,1,"[{""page_index"":0,""viewing_time"":5258}]",5258.3,instructions,2,45448,69,6108ba2774a08a10c085bb41,610ac7899a1b20066c0eb887,6107854906aaecb1febb6f3b,610ac7899a1b20066c0eb887,"""","""","""","""","""",""""
150,204,204,18,1,"""",238355.4,survey-text,3,283821,69,6108ba2774a08a10c085bb41,610ac7899a1b20066c0eb887,6107854906aaecb1febb6f3b,610ac7899a1b20066c0eb887,"{""Plan"":""it is possible to make a flourless, butter less, and sugar less cake. Take a mug, eggs, cocoa powder, espresso powder, vanilla extract, chocolate chips, butter substitute and chocolate chips. mix it all together with a fork and cook it in the microwave. Then top it off with condensed milk, this will act as a sort of icing, with out it being icing.  ""}","""",test,Bake a cake.,generate plans,"without using an oven, a bowl, butter, sugar, flour, a spatula, a pan, sprinkles, candles, icing, cake mix, a bowl, measuring cups, a spoon, a scale, baking paper, or a recipe"
151,205,205,18,1,"""",66899,survey-text,4,350723,69,6108ba2774a08a10c085bb41,610ac7899a1b20066c0eb887,6107854906aaecb1febb6f3b,610ac7899a1b20066c0eb887,"{""Plan"":""You could talk to all of the hunters and send a email out to ask them to not go after the deer. ""}","""",test,Protect the deer in your nearby woods during hunting season.,generate plans,"without using signs, deer corn, deer calls, salt lick bricks, a disguise, park rangers, or animal control"
152,206,206,18,1,"""",86897.3,survey-text,5,437624,69,6108ba2774a08a10c085bb41,610ac7899a1b20066c0eb887,6107854906aaecb1febb6f3b,610ac7899a1b20066c0eb887,"{""Plan"":""You're going to use your car, and get decorations to make the car magical. You're also going to get a lot of glitter and cover the outside of the car in glitter. ""}","""",test,Build a float to dazzle the crowd at the Macy's Day Parade.,generate plans,"without using a trailer, plastic, balloon inflators, a celebrity, a mascot, or a team of other people"
153,207,207,18,1,"""",101541.6,survey-text,6,539169,69,6108ba2774a08a10c085bb41,610ac7899a1b20066c0eb887,6107854906aaecb1febb6f3b,610ac7899a1b20066c0eb887,"{""Plan"":""you're going to bang on the door and scream until someone comes to open it for you. you can also try and kick the door down. \n""}","""",test,Escape from inside a locked custodial closet.,generate plans,"without using a phone, a key, a sharp object, a screwdriver, a mop handle, scrap wood, or a note"
154,208,208,18,1,"""",34640.6,survey-text,7,573813,69,6108ba2774a08a10c085bb41,610ac7899a1b20066c0eb887,6107854906aaecb1febb6f3b,610ac7899a1b20066c0eb887,"{""Plan"":""i would have him lay flat on the ground and then very easily still step over a six foot man. ""}","""",test,Jump over a six foot tall man.,generate plans,without using a trampoline or a deep hole
155,209,209,18,1,"""",85915.5,survey-text,8,659732,69,6108ba2774a08a10c085bb41,610ac7899a1b20066c0eb887,6107854906aaecb1febb6f3b,610ac7899a1b20066c0eb887,"{""Plan"":""make myself as light as possible and toss my bag and any jackets off of me. move very slowly and deliberately. try and reach someone elses hand or a root to grab on to. otherwise just do my best to ease out. ""}","""",test,Escape quicksand.,generate plans,without using a branch or vines
156,210,210,18,1,"""",165767.7,survey-text,9,825505,69,6108ba2774a08a10c085bb41,610ac7899a1b20066c0eb887,6107854906aaecb1febb6f3b,610ac7899a1b20066c0eb887,"{""Plan"":""I would crush some flowers and fruits with water. This would create a paint like substance, using a face paint brush or makeup brush i would start to color the fence. ""}","""",test,Paint a fence.,generate plans,"without using a paint brush, paint, a pressure washer, primer, a pail, music, lemonade, or cleaning supplies"
157,211,211,18,1,"[{""page_index"":0,""viewing_time"":2839.5999999940395},{""page_index"":1,""viewing_time"":8581.800000011921}]",11422.2,instructions,10,836928,69,6108ba2774a08a10c085bb41,610ac7899a1b20066c0eb887,6107854906aaecb1febb6f3b,610ac7899a1b20066c0eb887,"""","""","""","""","""",""""
158,212,212,18,1,"""",7818.8,survey-multi-choice,11,844750,69,6108ba2774a08a10c085bb41,610ac7899a1b20066c0eb887,6107854906aaecb1febb6f3b,610ac7899a1b20066c0eb887,"{""Q0"":""The goodness of plans."",""Q1"":""By selecting an option from a multiple choice scale.""}","[0,1]","""","""","""",""""
159,213,213,18,1,"[{""page_index"":0,""viewing_time"":1315.7000000178814},{""page_index"":1,""viewing_time"":2857.699999988079}]",4174.3,instructions,12,848926,69,6108ba2774a08a10c085bb41,610ac7899a1b20066c0eb887,6107854906aaecb1febb6f3b,610ac7899a1b20066c0eb887,"""","""","""","""","""",""""
160,214,214,18,1,"""",3381.5,survey-multi-choice,13,852311,69,6108ba2774a08a10c085bb41,610ac7899a1b20066c0eb887,6107854906aaecb1febb6f3b,610ac7899a1b20066c0eb887,"{""Q0"":""The goodness of plans."",""Q1"":""By moving sliders.""}","[0,1]","""","""","""",""""
161,215,215,18,1,"[{""page_index"":0,""viewing_time"":3089.5},{""page_index"":1,""viewing_time"":9584.90000000596}]",12675.5,instructions,14,864987,69,6108ba2774a08a10c085bb41,610ac7899a1b20066c0eb887,6107854906aaecb1febb6f3b,610ac7899a1b20066c0eb887,"""","""","""","""","""",""""
162,216,216,18,1,"""",3904.8,survey-multi-choice,15,868895,69,6108ba2774a08a10c085bb41,610ac7899a1b20066c0eb887,6107854906aaecb1febb6f3b,610ac7899a1b20066c0eb887,"{""Q0"":""How frequently you think people try to achieve each goal."",""Q1"":""By selecting an option from a multiple choice scale.""}","[0,1]","""","""","""",""""
163,217,217,18,1,"[{""page_index"":0,""viewing_time"":1131.5999999940395}]",1131.9,instructions,16,870027,69,6108ba2774a08a10c085bb41,610ac7899a1b20066c0eb887,6107854906aaecb1febb6f3b,610ac7899a1b20066c0eb887,"""","""","""","""","""",""""
164,218,218,18,1,"""",10889,survey-likert,17,880919,69,6108ba2774a08a10c085bb41,610ac7899a1b20066c0eb887,6107854906aaecb1febb6f3b,610ac7899a1b20066c0eb887,"{""freq"":3}",[0],"""",Bake a cake.,rate plans,"without using an oven, a bowl, butter, sugar, flour, a spatula, a pan, sprinkles, candles, icing, cake mix, a bowl, measuring cups, a spoon, a scale, baking paper, or a recipe"
165,219,219,18,1,"""",6600.5,survey-likert,18,887523,69,6108ba2774a08a10c085bb41,610ac7899a1b20066c0eb887,6107854906aaecb1febb6f3b,610ac7899a1b20066c0eb887,"{""freq"":1}",[0],"""",Protect the deer in your nearby woods during hunting season.,rate plans,"without using signs, deer corn, deer calls, salt lick bricks, a disguise, park rangers, or animal control"
166,220,220,18,1,"""",9693.5,survey-likert,19,897219,69,6108ba2774a08a10c085bb41,610ac7899a1b20066c0eb887,6107854906aaecb1febb6f3b,610ac7899a1b20066c0eb887,"{""freq"":5}",[0],"""",Build a float to dazzle the crowd at the Macy's Day Parade.,rate plans,"without using a trailer, plastic, balloon inflators, a celebrity, a mascot, or a team of other people"
167,221,221,18,1,"""",5841.3,survey-likert,20,903064,69,6108ba2774a08a10c085bb41,610ac7899a1b20066c0eb887,6107854906aaecb1febb6f3b,610ac7899a1b20066c0eb887,"{""freq"":3}",[0],"""",Escape from inside a locked custodial closet.,rate plans,"without using a phone, a key, a sharp object, a screwdriver, a mop handle, scrap wood, or a note"
168,222,222,18,1,"""",11312.2,survey-likert,21,914379,69,6108ba2774a08a10c085bb41,610ac7899a1b20066c0eb887,6107854906aaecb1febb6f3b,610ac7899a1b20066c0eb887,"{""freq"":1}",[0],"""",Jump over a six foot tall man.,rate plans,without using a trampoline or a deep hole
169,223,223,18,1,"""",2667.2,survey-likert,22,917049,69,6108ba2774a08a10c085bb41,610ac7899a1b20066c0eb887,6107854906aaecb1febb6f3b,610ac7899a1b20066c0eb887,"{""freq"":0}",[0],"""",Escape quicksand.,rate plans,without using a branch or vines
170,224,224,18,1,"""",3299.1,survey-likert,23,920350,69,6108ba2774a08a10c085bb41,610ac7899a1b20066c0eb887,6107854906aaecb1febb6f3b,610ac7899a1b20066c0eb887,"{""freq"":2}",[0],"""",Paint a fence.,rate plans,"without using a paint brush, paint, a pressure washer, primer, a pail, music, lemonade, or cleaning supplies"
171,225,225,18,1,"""",30790,survey-text,24,951145,69,6108ba2774a08a10c085bb41,610ac7899a1b20066c0eb887,6107854906aaecb1febb6f3b,610ac7899a1b20066c0eb887,"{""Q0"":""10"",""Q1"":""7"",""Q2"":""8"",""Q3"":""4"",""Q4"":""}","""","""","""","""",""""
172,226,226,2,3,"[{""page_index"":0,""viewing_time"":10716.5},{""page_index"":1,""viewing_time"":24328.799999952316},{""page_index"":2,""viewing_time"":8554.799999952316},{""page_index"":3,""viewing_time"":15158.100000023842},{""page_index"":4,""viewing_time"":4705}]",63463.9,instructions,0,63471,82,6108ba2774a08a10c085bb41,610ac724a19de15bd094999c,6109c9cb99ba0fa7894bd452,610ac724a19de15bd094999c,"""","""","""","""","""",""""
173,227,227,2,3,"""",11587.4,survey-multi-choice,1,75064,82,6108ba2774a08a10c085bb41,610ac724a19de15bd094999c,6109c9cb99ba0fa7894bd452,610ac724a19de15bd094999c,"{""Q0"":""Plans to achieve goals."",""Q1"":""By writing text.""}","[0,1]","""","""","""",""""
174,228,228,2,3,"[{""page_index"":0,""viewing_time"":2087.600000023842}]",2087.8,instructions,2,77156,82,6108ba2774a08a10c085bb41,610ac724a19de15bd094999c,6109c9cb99ba0fa7894bd452,610ac724a19de15bd094999c,"""","""","""","""","""",""""
175,229,229,2,3,"""",146577.1,survey-text,3,223755,82,6108ba2774a08a10c085bb41,610ac724a19de15bd094999c,6109c9cb99ba0fa7894bd452,610ac724a19de15bd094999c,"{""Plan"":""If your canoe is near the shore, try to grab onto something like a branch or bush. If you can't reach anything and the canoe is moving at a reasonably slow speed, put one leg over the side of the canoe and try to wedge your foot against something underwater to stop the canoe. ""}","""",test,Stop your canoe from falling down the waterfall.,generate plans,"without using a paddle, a rock, or a rope"
176,230,230,2,3,"""",127846.2,survey-text,4,351607,82,6108ba2774a08a10c085bb41,610ac724a19de15bd094999c,6109c9cb99ba0fa7894bd452,610ac724a19de15bd094999c,"{""Plan"":""Use a crane to dump artificial snow onto the tree. ""}","""",test,Decorate the world's largest Christmas tree.,generate plans,"without using lights, Christmas decorations, or fake leaves"
177,231,231,2,3,"""",97648.5,survey-text,5,449260,82,6108ba2774a08a10c085bb41,610ac724a19de15bd094999c,6109c9cb99ba0fa7894bd452,610ac724a19de15bd094999c,"{""Plan"":""Buy and use dental treats meant for dogs or cats.""}","""",test,Remove plaque from the teeth of a lion.,generate plans,"without using a tranquilizer, meat, a sleeping drug, or animal specialists"
178,232,232,2,3,"""",77136,survey-text,6,526400,82,6108ba2774a08a10c085bb41,610ac724a19de15bd094999c,6109c9cb99ba0fa7894bd452,610ac724a19de15bd094999c,"{""Plan"":""Tie ropes around the tree trunk and have everyone in the country pull until the tree has fallen.""}","""",test,Cut down a tree.,generate plans,"without using a chainsaw, an axe, or a lorry"
179,233,233,2,3,"""",137955.2,survey-text,7,664362,82,6108ba2774a08a10c085bb41,610ac724a19de15bd094999c,6109c9cb99ba0fa7894bd452,610ac724a19de15bd094999c,"{""Plan"":""First, try to determine if you and the server have any other languages in common. If not, and if a dictionary doesn't count as a translator app, use a dictionary. If that's not allowed, gesture to the menu or another diner's meal with your elbow. ""}","""",test,"Order food in a restaurant, where you don't speak the native language.",generate plans,"without using a translator app, a human translator, your fingers, or sign language"
180,234,234,2,3,"""",118840.2,survey-text,8,783208,82,6108ba2774a08a10c085bb41,610ac724a19de15bd094999c,6109c9cb99ba0fa7894bd452,610ac724a19de15bd094999c,"{""Plan"":""Have some empty boxes laying around? Stack them on top of each other!""}","""",test,Build a bookshelf.,generate plans,"without using wood, planks, nails, gum, or books"
181,235,235,2,3,"""",55319.8,survey-text,9,838533,82,6108ba2774a08a10c085bb41,610ac724a19de15bd094999c,6109c9cb99ba0fa7894bd452,610ac724a19de15bd094999c,"{""Plan"":""Find out what a platypus eats and use that to play some games with the little one.""}","""",test,Keep a baby platupyus entertained.,generate plans,"without using a ball, an aquarium, plastic fish, or a clown"
182,236,236,2,3,"[{""page_index"":0,""viewing_time"":2726.7000000476837},{""page_index"":1,""viewing_time"":16866}]",19593.8,instructions,10,858124,82,6108ba2774a08a10c085bb41,610ac724a19de15bd094999c,6109c9cb99ba0fa7894bd452,610ac724a19de15bd094999c,"""","""","""","""","""",""""
183,237,237,2,3,"""",12506.9,survey-multi-choice,11,870633,82,6108ba2774a08a10c085bb41,610ac724a19de15bd094999c,6109c9cb99ba0fa7894bd452,610ac724a19de15bd094999c,"{""Q0"":""How frequently you think people try to achieve each goal."",""Q1"":""By selecting an option from a multiple choice scale.""}","[0,1]","""","""","""",""""
184,238,238,2,3,"[{""page_index"":0,""viewing_time"":1300.2999999523163}]",1300.5,instructions,12,871937,82,6108ba2774a08a10c085bb41,610ac724a19de15bd094999c,6109c9cb99ba0fa7894bd452,610ac724a19de15bd094999c,"""","""","""","""","""",""""
185,239,239,2,3,"""",22025.5,survey-likert,13,893966,82,6108ba2774a08a10c085bb41,610ac724a19de15bd094999c,6109c9cb99ba0fa7894bd452,610ac724a19de15bd094999c,"{""freq"":3}",[0],"""",Stop your canoe from falling down the waterfall.,rate plans,"without using a paddle, a rock, or a rope"
186,240,240,2,3,"""",17943.9,survey-likert,14,911914,82,6108ba2774a08a10c085bb41,610ac724a19de15bd094999c,6109c9cb99ba0fa7894bd452,610ac724a19de15bd094999c,"{""freq"":4}",[0],"""",Decorate the world's largest Christmas tree.,rate plans,"without using lights, Christmas decorations, or fake leaves"
187,241,241,2,3,"""",13599.1,survey-likert,15,925520,82,6108ba2774a08a10c085bb41,610ac724a19de15bd094999c,6109c9cb99ba0fa7894bd452,610ac724a19de15bd094999c,"{""freq"":5}",[0],"""",Remove plaque from the teeth of a lion.,rate plans,"without using a tranquilizer, meat, a sleeping drug, or animal specialists"
188,242,242,2,3,"""",6699.1,survey-likert,16,932224,82,6108ba2774a08a10c085bb41,610ac724a19de15bd094999c,6109c9cb99ba0fa7894bd452,610ac724a19de15bd094999c,"{""freq"":5}",[0],"""",Cut down a tree.,rate plans,"without using a chainsaw, an axe, or a lorry"
189,243,243,2,3,"""",10646.9,survey-likert,17,942877,82,6108ba2774a08a10c085bb41,610ac724a19de15bd094999c,6109c9cb99ba0fa7894bd452,610ac724a19de15bd094999c,"{""freq"":5}",[0],"""","Order food in a restaurant, where you don't speak the native language.",rate plans,"without using a translator app, a human translator, your fingers, or sign language"
190,244,244,2,3,"""",12556.2,survey-likert,18,955438,82,6108ba2774a08a10c085bb41,610ac724a19de15bd094999c,6109c9cb99ba0fa7894bd452,610ac724a19de15bd094999c,"{""freq"":3}",[0],"""",Build a bookshelf.,rate plans,"without using wood, planks, nails, gum, or books"
191,245,245,2,3,"""",13651.3,survey-likert,19,969096,82,6108ba2774a08a10c085bb41,610ac724a19de15bd094999c,6109c9cb99ba0fa7894bd452,610ac724a19de15bd094999c,"{""freq"":4}",[0],"""",Keep a baby platupyus entertained.,rate plans,"without using a ball, an aquarium, plastic fish, or a clown"
192,269,269,3,1,"[{""page_index"":0,""viewing_time"":11174.100000023842},{""page_index"":1,""viewing_time"":19191.80000001192},{""page_index"":2,""viewing_time"":2648},{""page_index"":1,""viewing_time"":16752},{""page_index"":2,""viewing_time"":18512},{""page_index"":3,""viewing_time"":8296},{""page_index"":4,""viewing_time"":2616.199999988079}]",79190.6,instructions,0,79194,79,6108ba2774a08a10c085bb41,610ac73927c0d407732e03bf,61097db4d04095b7e7d43c11,610ac73927c0d407732e03bf,"""","""","""","""","""",""""
193,270,270,3,1,"""",8853.4,survey-multi-choice,1,88050,79,6108ba2774a08a10c085bb41,610ac73927c0d407732e03bf,61097db4d04095b7e7d43c11,610ac73927c0d407732e03bf,"{""Q0"":""Plans to achieve goals."",""Q1"":""By writing text.""}","[0,1]","""","""","""",""""
194,271,271,3,1,"[{""page_index"":0,""viewing_time"":1998}]",1998.1,instructions,2,90050,79,6108ba2774a08a10c085bb41,610ac73927c0d407732e03bf,61097db4d04095b7e7d43c11,610ac73927c0d407732e03bf,"""","""","""","""","""",""""
195,272,272,3,1,"""",105801.9,survey-text,3,195866,79,6108ba2774a08a10c085bb41,610ac73927c0d407732e03bf,61097db4d04095b7e7d43c11,610ac73927c0d407732e03bf,"{""Plan"":""Round up as many deer as possible and get them to fenced private land. Release them when hunting season is over.""}","""",test,Protect the deer in your nearby woods during hunting season.,generate plans,"without using signs, deer corn, deer calls, salt lick bricks, a disguise, park rangers, or animal control"
196,273,273,3,1,"""",289836.2,survey-text,4,485706,79,6108ba2774a08a10c085bb41,610ac73927c0d407732e03bf,61097db4d04095b7e7d43c11,610ac73927c0d407732e03bf,"{""Plan"":""I am completely stuck at the no trailer qualification. Use a large truck(?) and attach t-shirt cannons and glitter cannons.""}","""",test,Build a float to dazzle the crowd at the Macy's Day Parade.,generate plans,"without using a trailer, plastic, balloon inflators, a celebrity, a mascot, or a team of other people"
197,274,274,3,1,"""",58180.4,survey-text,5,543889,79,6108ba2774a08a10c085bb41,610ac73927c0d407732e03bf,61097db4d04095b7e7d43c11,610ac73927c0d407732e03bf,"{""Plan"":""Knock loudly and yell every 10 to 30 minutes until someone hears me and lets me out. ""}","""",test,Escape from inside a locked custodial closet.,generate plans,"without using a phone, a key, a sharp object, a screwdriver, a mop handle, scrap wood, or a note"
198,275,275,3,1,"""",194942,survey-text,6,738833,79,6108ba2774a08a10c085bb41,610ac73927c0d407732e03bf,61097db4d04095b7e7d43c11,610ac73927c0d407732e03bf,"{""Plan"":""Use dates, oats and peanut butter. Mash dates in a food processor. Mix ingredients together with hands or a fork. Shape into a cake shape on a plate. Cover with whipped cream.""}","""",test,Bake a cake.,generate plans,"without using an oven, a bowl, butter, sugar, flour, a spatula, a pan, sprinkles, candles, icing, cake mix, a bowl, measuring cups, a spoon, a scale, baking paper, or a recipe"
199,276,276,3,1,"""",27212.9,survey-text,7,766049,79,6108ba2774a08a10c085bb41,610ac73927c0d407732e03bf,61097db4d04095b7e7d43c11,610ac73927c0d407732e03bf,"{""Plan"":""Ask the man to lay on his side or back. Then jump over him.""}","""",test,Jump over a six foot tall man.,generate plans,without using a trampoline or a deep hole
200,277,277,3,1,"""",53078.6,survey-text,8,819130,79,6108ba2774a08a10c085bb41,610ac73927c0d407732e03bf,61097db4d04095b7e7d43c11,610ac73927c0d407732e03bf,"{""Plan"":""Have my friend pull me out.""}","""",test,Escape quicksand.,generate plans,without using a branch or vines
201,278,278,3,1,"""",134221.2,survey-text,9,953354,79,6108ba2774a08a10c085bb41,610ac73927c0d407732e03bf,61097db4d04095b7e7d43c11,610ac73927c0d407732e03bf,"{""Plan"":""Research how to create colors using berries and plants. Create desired color. Use hands or a rag to wipe color onto fence.""}","""",test,Paint a fence.,generate plans,"without using a paint brush, paint, a pressure washer, primer, a pail, music, lemonade, or cleaning supplies"
202,279,279,3,1,"[{""page_index"":0,""viewing_time"":6767.199999988079},{""page_index"":1,""viewing_time"":10192}]",16959.7,instructions,10,970314,79,6108ba2774a08a10c085bb41,610ac73927c0d407732e03bf,61097db4d04095b7e7d43c11,610ac73927c0d407732e03bf,"""","""","""","""","""",""""
203,280,280,3,1,"""",10965.7,survey-multi-choice,11,981282,79,6108ba2774a08a10c085bb41,610ac73927c0d407732e03bf,61097db4d04095b7e7d43c11,610ac73927c0d407732e03bf,"{""Q0"":""How frequently you think people try to achieve each goal."",""Q1"":""By selecting an option from a multiple choice scale.""}","[0,1]","""","""","""",""""
204,281,281,3,1,"[{""page_index"":0,""viewing_time"":10022.699999988079}]",10022.8,instructions,12,991305,79,6108ba2774a08a10c085bb41,610ac73927c0d407732e03bf,61097db4d04095b7e7d43c11,610ac73927c0d407732e03bf,"""","""","""","""","""",""""
205,282,282,3,1,"""",32501,survey-likert,13,1023810,79,6108ba2774a08a10c085bb41,610ac73927c0d407732e03bf,61097db4d04095b7e7d43c11,610ac73927c0d407732e03bf,"{""freq"":3}",[0],"""",Protect the deer in your nearby woods during hunting season.,rate plans,"without using signs, deer corn, deer calls, salt lick bricks, a disguise, park rangers, or animal control"
206,283,283,3,1,"""",18958,survey-likert,14,1042770,79,6108ba2774a08a10c085bb41,610ac73927c0d407732e03bf,61097db4d04095b7e7d43c11,610ac73927c0d407732e03bf,"{""freq"":6}",[0],"""",Build a float to dazzle the crowd at the Macy's Day Parade.,rate plans,"without using a trailer, plastic, balloon inflators, a celebrity, a mascot, or a team of other people"
207,284,284,3,1,"""",17453.2,survey-likert,15,1060225,79,6108ba2774a08a10c085bb41,610ac73927c0d407732e03bf,61097db4d04095b7e7d43c11,610ac73927c0d407732e03bf,"{""freq"":3}",[0],"""",Escape from inside a locked custodial closet.,rate plans,"without using a phone, a key, a sharp object, a screwdriver, a mop handle, scrap wood, or a note"
208,285,285,3,1,"""",12590.9,survey-likert,16,1072818,79,6108ba2774a08a10c085bb41,610ac73927c0d407732e03bf,61097db4d04095b7e7d43c11,610ac73927c0d407732e03bf,"{""freq"":5}",[0],"""",Bake a cake.,rate plans,"without using an oven, a bowl, butter, sugar, flour, a spatula, a pan, sprinkles, candles, icing, cake mix, a bowl, measuring cups, a spoon, a scale, baking paper, or a recipe"
209,286,286,3,1,"""",15221,survey-likert,17,1088041,79,6108ba2774a08a10c085bb41,610ac73927c0d407732e03bf,61097db4d04095b7e7d43c11,610ac73927c0d407732e03bf,"{""freq"":3}",[0],"""",Jump over a six foot tall man.,rate plans,without using a trampoline or a deep hole
210,287,287,3,1,"""",11670.1,survey-likert,18,1099713,79,6108ba2774a08a10c085bb41,610ac73927c0d407732e03bf,61097db4d04095b7e7d43c11,610ac73927c0d407732e03bf,"{""freq"":5}",[0],"""",Escape quicksand.,rate plans,without using a branch or vines
211,288,288,3,1,"""",7901.1,survey-likert,19,1107617,79,6108ba2774a08a10c085bb41,610ac73927c0d407732e03bf,61097db4d04095b7e7d43c11,610ac73927c0d407732e03bf,"{""freq"":5}",[0],"""",Paint a fence.,rate plans,"without using a paint brush, paint, a pressure washer, primer, a pail, music, lemonade, or cleaning supplies"
212,289,289,3,1,"""",24533.1,survey-text,20,1132153,79,6108ba2774a08a10c085bb41,610ac73927c0d407732e03bf,61097db4d04095b7e7d43c11,610ac73927c0d407732e03bf,"{""Q0"":""10"",""Q1"":""7"",""Q2"":""8"",""Q3"":""2"",""Q4"":""}","""","""","""","""",""""
213,290,290,4,4,"[{""page_index"":0,""viewing_time"":7513.5},{""page_index"":1,""viewing_time"":9100.899999976158},{""page_index"":2,""viewing_time"":13295.400000035763},{""page_index"":3,""viewing_time"":13916.299999952316},{""page_index"":4,""viewing_time"":3797.400000035763}]",47624.7,instructions,0,47638,76,6108ba2774a08a10c085bb41,610ac740b36450f90b1b4798,61086ab1f4db8595f3a4c92b,610ac740b36450f90b1b4798,"""","""","""","""","""",""""
214,291,291,4,4,"""",10297.9,survey-multi-choice,1,57943,76,6108ba2774a08a10c085bb41,610ac740b36450f90b1b4798,61086ab1f4db8595f3a4c92b,610ac740b36450f90b1b4798,"{""Q0"":""Plans to achieve goals."",""Q1"":""By writing text.""}","[0,1]","""","""","""",""""
215,292,292,4,4,"[{""page_index"":0,""viewing_time"":1771.300000011921}]",1771.5,instructions,2,59716,76,6108ba2774a08a10c085bb41,610ac740b36450f90b1b4798,61086ab1f4db8595f3a4c92b,610ac740b36450f90b1b4798,"""","""","""","""","""",""""
216,293,293,4,4,"""",96571.8,survey-text,3,156304,76,6108ba2774a08a10c085bb41,610ac740b36450f90b1b4798,61086ab1f4db8595f3a4c92b,610ac740b36450f90b1b4798,"{""Plan"":""I would do my best to wipe the food debris off with a cloth and then use perhaps a clorox wipe to sanitize it. Afterward, I'd leave it out in the sun to dry. ""}","""",test,Clean the dirty dishes.,generate plans,"without using soap, water, a tub, sanitizer, a sponge, detergent, a counter, or a dishwasher"
217,296,296,4,4,"""",101627,survey-text,5,415299,76,6108ba2774a08a10c085bb41,610ac740b36450f90b1b4798,61086ab1f4db8595f3a4c92b,610ac740b36450f90b1b4798,"{""Plan"":""My first move would be to evaluate the size of the fire. If it's small I'd try to smother it. If not, I'd immediately evacuate and alert my neighbors so that they could call the fire department.""}","""",test,Put out a fire that started near the wires from your TV.,generate plans,"without using a fire extinguisher, water, or a phone"
218,297,297,4,4,"""",220089.2,survey-text,6,635398,76,6108ba2774a08a10c085bb41,610ac740b36450f90b1b4798,61086ab1f4db8595f3a4c92b,610ac740b36450f90b1b4798,"{""Plan"":""My first idea would be to try to manipulate the wind so that the diver lands in a large body of water. ""}","""",test,Create a safe landing for a falling skydiver.,generate plans,"without using a net, drones, a safety flag, or a parachute"
219,298,298,4,4,"""",238326.1,survey-text,7,873738,76,6108ba2774a08a10c085bb41,610ac740b36450f90b1b4798,61086ab1f4db8595f3a4c92b,610ac740b36450f90b1b4798,"{""Plan"":""I would replace the tire with something else that could be a quick replacement so that I'd be able to push the car home. After that, I'd buy a new car. ""}","""",test,Fix a flat tire.,generate plans,"without using a spare tire, a car mechanic, a tow truck, a car jack, vulcanizing tools, or a pressure gauge"
220,299,299,4,4,"""",112010.9,survey-text,8,985756,76,6108ba2774a08a10c085bb41,610ac740b36450f90b1b4798,61086ab1f4db8595f3a4c92b,610ac740b36450f90b1b4798,"{""Plan"":""I would build a mini greenhouse around the garden and install it with lights, use natural fertilizers (like banana peels or compost), and then collect rainwater. ""}","""",test,Keep the plants in your garden alive.,generate plans,"without using water, sun, a notebook, herbicides, or an umbrella"
221,300,300,4,4,"""",175130.5,survey-text,9,1160915,76,6108ba2774a08a10c085bb41,610ac740b36450f90b1b4798,61086ab1f4db8595f3a4c92b,610ac740b36450f90b1b4798,"{""Plan"":""Hire a marine biologist and use their expertise to create a device that a shark will interact with while counting the number of interactions. ""}","""",test,Find out how many sharks live in a cove off a nearby coast.,generate plans,"without using bait, an underwater camera, a submarine, a shark tracking app, red lines, or a danger-zone notice board"
222,301,301,4,4,"[{""page_index"":0,""viewing_time"":1684.3999999761581},{""page_index"":1,""viewing_time"":10541.400000035763}]",12227.1,instructions,10,1173143,76,6108ba2774a08a10c085bb41,610ac740b36450f90b1b4798,61086ab1f4db8595f3a4c92b,610ac740b36450f90b1b4798,"""","""","""","""","""",""""
223,302,302,4,4,"""",8934.4,survey-multi-choice,11,1182082,76,6108ba2774a08a10c085bb41,610ac740b36450f90b1b4798,61086ab1f4db8595f3a4c92b,610ac740b36450f90b1b4798,"{""Q0"":""How frequently you think people try to achieve each goal."",""Q1"":""By moving sliders.""}","[0,1]","""","""","""",""""
224,303,303,4,4,"[{""page_index"":0,""viewing_time"":1439.5999999642372},{""page_index"":1,""viewing_time"":4515.400000035763}]",5955.5,instructions,12,1188039,76,6108ba2774a08a10c085bb41,610ac740b36450f90b1b4798,61086ab1f4db8595f3a4c92b,610ac740b36450f90b1b4798,"""","""","""","""","""",""""
225,304,304,4,4,"""",4809.5,survey-multi-choice,13,1192851,76,6108ba2774a08a10c085bb41,610ac740b36450f90b1b4798,61086ab1f4db8595f3a4c92b,610ac740b36450f90b1b4798,"{""Q0"":""How frequently you think people try to achieve each goal."",""Q1"":""By selecting an option from a multiple choice scale.""}","[0,1]","""","""","""",""""
226,305,305,4,4,"[{""page_index"":0,""viewing_time"":912}]",912.3,instructions,14,1193765,76,6108ba2774a08a10c085bb41,610ac740b36450f90b1b4798,61086ab1f4db8595f3a4c92b,610ac740b36450f90b1b4798,"""","""","""","""","""",""""
227,306,306,4,4,"""",12147.2,survey-likert,15,1205918,76,6108ba2774a08a10c085bb41,610ac740b36450f90b1b4798,61086ab1f4db8595f3a4c92b,610ac740b36450f90b1b4798,"{""freq"":5}",[0],"""",Clean the dirty dishes.,rate plans,"without using soap, water, a tub, sanitizer, a sponge, detergent, a counter, or a dishwasher"
228,307,307,4,4,"""",5299,survey-likert,16,1211219,76,6108ba2774a08a10c085bb41,610ac740b36450f90b1b4798,61086ab1f4db8595f3a4c92b,610ac740b36450f90b1b4798,"{""freq"":5}",[0],"""",Make a fort underwater.,rate plans,"without using an oxygen tank, masks, swimming goggles, concrete, a miliary ship, a crane, a marine biologist, or a building engineer"
229,308,308,4,4,"""",14872.4,survey-likert,17,1226096,76,6108ba2774a08a10c085bb41,610ac740b36450f90b1b4798,61086ab1f4db8595f3a4c92b,610ac740b36450f90b1b4798,"{""freq"":2}",[0],"""",Put out a fire that started near the wires from your TV.,rate plans,"without using a fire extinguisher, water, or a phone"
230,309,309,4,4,"""",4687.8,survey-likert,18,1230786,76,6108ba2774a08a10c085bb41,610ac740b36450f90b1b4798,61086ab1f4db8595f3a4c92b,610ac740b36450f90b1b4798,"{""freq"":6}",[0],"""",Create a safe landing for a falling skydiver.,rate plans,"without using a net, drones, a safety flag, or a parachute"
231,310,310,4,4,"""",4777.9,survey-likert,19,1235568,76,6108ba2774a08a10c085bb41,610ac740b36450f90b1b4798,61086ab1f4db8595f3a4c92b,610ac740b36450f90b1b4798,"{""freq"":3}",[0],"""",Fix a flat tire.,rate plans,"without using a spare tire, a car mechanic, a tow truck, a car jack, vulcanizing tools, or a pressure gauge"
232,311,311,4,4,"""",5191.9,survey-likert,20,1240763,76,6108ba2774a08a10c085bb41,610ac740b36450f90b1b4798,61086ab1f4db8595f3a4c92b,610ac740b36450f90b1b4798,"{""freq"":6}",[0],"""",Keep the plants in your garden alive.,rate plans,"without using water, sun, a notebook, herbicides, or an umbrella"
233,312,312,4,4,"""",5995.4,survey-likert,21,1246765,76,6108ba2774a08a10c085bb41,610ac740b36450f90b1b4798,61086ab1f4db8595f3a4c92b,610ac740b36450f90b1b4798,"{""freq"":2}",[0],"""",Find out how many sharks live in a cove off a nearby coast.,rate plans,"without using bait, an underwater camera, a submarine, a shark tracking app, red lines, or a danger-zone notice board"
234,313,313,4,4,"""",20942.2,survey-text,22,1267712,76,6108ba2774a08a10c085bb41,610ac740b36450f90b1b4798,61086ab1f4db8595f3a4c92b,610ac740b36450f90b1b4798,"{""Q0"":""9"",""Q1"":""8"",""Q2"":""9"",""Q3"":""5"",""Q4"":""}","""","""","""","""",""""
235,335,335,5,1,"[{""page_index"":0,""viewing_time"":7807.800000011921},{""page_index"":1,""viewing_time"":9296.89999999106},{""page_index"":2,""viewing_time"":9542.90000000596},{""page_index"":3,""viewing_time"":11629.29999999702},{""page_index"":4,""viewing_time"":3066.5999999940395}]",41345.8,instructions,0,41364,81,6108ba2774a08a10c085bb41,610ac73ca130127aa1f0e9a1,610999778e6142549b918cce,610ac73ca130127aa1f0e9a1,"""","""","""","""","""",""""
236,336,336,5,1,"""",12557.8,survey-multi-choice,1,53937,81,6108ba2774a08a10c085bb41,610ac73ca130127aa1f0e9a1,610999778e6142549b918cce,610ac73ca130127aa1f0e9a1,"{""Q0"":""Plans to achieve goals."",""Q1"":""By writing text.""}","[0,1]","""","""","""",""""
237,337,337,5,1,"[{""page_index"":0,""viewing_time"":1845.6000000089407}]",1846.1,instructions,2,55790,81,6108ba2774a08a10c085bb41,610ac73ca130127aa1f0e9a1,610999778e6142549b918cce,610ac73ca130127aa1f0e9a1,"""","""","""","""","""",""""
238,338,338,5,1,"""",91334,survey-text,3,147164,81,6108ba2774a08a10c085bb41,610ac73ca130127aa1f0e9a1,610999778e6142549b918cce,610ac73ca130127aa1f0e9a1,"{""Plan"":""Do not struggle because it will make you sink faster. Instead, slowly move to the closest edge of the quicksand. Use your arms to slowly pull yourself as to not exert too much energy.""}","""",test,Escape quicksand.,generate plans,without using a branch or vines
239,339,339,5,1,"""",169187.5,survey-text,4,316365,81,6108ba2774a08a10c085bb41,610ac73ca130127aa1f0e9a1,610999778e6142549b918cce,610ac73ca130127aa1f0e9a1,"{""Plan"":""To create a dazzling parade float, I would use a monster truck decked out in welded metal to look like a turkey. I would obtain scrap metal and weld it to the monster truck and then finish it off with a coat of paint.""}","""",test,Build a float to dazzle the crowd at the Macy's Day Parade.,generate plans,"without using a trailer, plastic, balloon inflators, a celebrity, a mascot, or a team of other people"
240,340,340,5,1,"""",98543,survey-text,5,414928,81,6108ba2774a08a10c085bb41,610ac73ca130127aa1f0e9a1,610999778e6142549b918cce,610ac73ca130127aa1f0e9a1,"{""Plan"":""First, I need to get a running start. I'd back up about 20 feet before sprinting. Once I was about two feet away,  would launch myself with my dominant foot and spread my legs to clear over the man's head without hitting him.""}","""",test,Jump over a six foot tall man.,generate plans,without using a trampoline or a deep hole
241,341,341,5,1,"""",60904.6,survey-text,6,475844,81,6108ba2774a08a10c085bb41,610ac73ca130127aa1f0e9a1,610999778e6142549b918cce,610ac73ca130127aa1f0e9a1,"{""Plan"":""First I would try yelling to see if anyone could hear me and unlock the door. If that didn't work, I would need to start using my foot to kick down the door.""}","""",test,Escape from inside a locked custodial closet.,generate plans,"without using a phone, a key, a sharp object, a screwdriver, a mop handle, scrap wood, or a note"
242,342,342,5,1,"""",89392.8,survey-text,7,565249,81,6108ba2774a08a10c085bb41,610ac73ca130127aa1f0e9a1,610999778e6142549b918cce,610ac73ca130127aa1f0e9a1,"{""Plan"":""I would boil down chalk until it forms a liquid, then throw it at the fence.""}","""",test,Paint a fence.,generate plans,"without using a paint brush, paint, a pressure washer, primer, a pail, music, lemonade, or cleaning supplies"
243,343,343,5,1,"""",43218.5,survey-text,8,608476,81,6108ba2774a08a10c085bb41,610ac73ca130127aa1f0e9a1,610999778e6142549b918cce,610ac73ca130127aa1f0e9a1,"{""Plan"":""I would sleep next to the deer so I could hear anyone approach.""}","""",test,Protect the deer in your nearby woods during hunting season.,generate plans,"without using signs, deer corn, deer calls, salt lick bricks, a disguise, park rangers, or animal control"
244,344,344,5,1,"""",130442.5,survey-text,9,738933,81,6108ba2774a08a10c085bb41,610ac73ca130127aa1f0e9a1,610999778e6142549b918cce,610ac73ca130127aa1f0e9a1,"{""Plan"":""I would get a coffee mug and fill it with meat and microwave it for 10 minutes until my meat cake is ready.""}","""",test,Bake a cake.,generate plans,"without using an oven, a bowl, butter, sugar, flour, a spatula, a pan, sprinkles, candles, icing, cake mix, a bowl, measuring cups, a spoon, a scale, baking paper, or a recipe"
245,345,345,5,1,"[{""page_index"":0,""viewing_time"":3301.7999999970198},{""page_index"":1,""viewing_time"":9306}]",12610.6,instructions,10,751547,81,6108ba2774a08a10c085bb41,610ac73ca130127aa1f0e9a1,610999778e6142549b918cce,610ac73ca130127aa1f0e9a1,"""","""","""","""","""",""""
246,346,346,5,1,"""",9330.8,survey-multi-choice,11,760885,81,6108ba2774a08a10c085bb41,610ac73ca130127aa1f0e9a1,610999778e6142549b918cce,610ac73ca130127aa1f0e9a1,"{""Q0"":""How frequently you think people try to achieve each goal."",""Q1"":""By selecting an option from a multiple choice scale.""}","[0,1]","""","""","""",""""
247,347,347,5,1,"[{""page_index"":0,""viewing_time"":1668.5}]",1669.6,instructions,12,762562,81,6108ba2774a08a10c085bb41,610ac73ca130127aa1f0e9a1,610999778e6142549b918cce,610ac73ca130127aa1f0e9a1,"""","""","""","""","""",""""
248,348,348,5,1,"""",8962.9,survey-likert,13,771534,81,6108ba2774a08a10c085bb41,610ac73ca130127aa1f0e9a1,610999778e6142549b918cce,610ac73ca130127aa1f0e9a1,"{""freq"":5}",[0],"""",Escape quicksand.,rate plans,without using a branch or vines
249,349,349,5,1,"""",7811.6,survey-likert,14,779354,81,6108ba2774a08a10c085bb41,610ac73ca130127aa1f0e9a1,610999778e6142549b918cce,610ac73ca130127aa1f0e9a1,"{""freq"":4}",[0],"""",Build a float to dazzle the crowd at the Macy's Day Parade.,rate plans,"without using a trailer, plastic, balloon inflators, a celebrity, a mascot, or a team of other people"
250,350,350,5,1,"""",5671.9,survey-likert,15,785038,81,6108ba2774a08a10c085bb41,610ac73ca130127aa1f0e9a1,610999778e6142549b918cce,610ac73ca130127aa1f0e9a1,"{""freq"":3}",[0],"""",Jump over a six foot tall man.,rate plans,without using a trampoline or a deep hole
251,351,351,5,1,"""",10704.8,survey-likert,16,795750,81,6108ba2774a08a10c085bb41,610ac73ca130127aa1f0e9a1,610999778e6142549b918cce,610ac73ca130127aa1f0e9a1,"{""freq"":4}",[0],"""",Escape from inside a locked custodial closet.,rate plans,"without using a phone, a key, a sharp object, a screwdriver, a mop handle, scrap wood, or a note"
252,352,352,5,1,"""",13327.9,survey-likert,17,809090,81,6108ba2774a08a10c085bb41,610ac73ca130127aa1f0e9a1,610999778e6142549b918cce,610ac73ca130127aa1f0e9a1,"{""freq"":5}",[0],"""",Paint a fence.,rate plans,"without using a paint brush, paint, a pressure washer, primer, a pail, music, lemonade, or cleaning supplies"
253,353,353,5,1,"""",7649.1,survey-likert,18,816748,81,6108ba2774a08a10c085bb41,610ac73ca130127aa1f0e9a1,610999778e6142549b918cce,610ac73ca130127aa1f0e9a1,"{""freq"":6}",[0],"""",Protect the deer in your nearby woods during hunting season.,rate plans,"without using signs, deer corn, deer calls, salt lick bricks, a disguise, park rangers, or animal control"
254,354,354,5,1,"""",5412.9,survey-likert,19,822173,81,6108ba2774a08a10c085bb41,610ac73ca130127aa1f0e9a1,610999778e6142549b918cce,610ac73ca130127aa1f0e9a1,"{""freq"":6}",[0],"""",Bake a cake.,rate plans,"without using an oven, a bowl, butter, sugar, flour, a spatula, a pan, sprinkles, candles, icing, cake mix, a bowl, measuring cups, a spoon, a scale, baking paper, or a recipe"
255,355,355,5,1,"""",25653.1,survey-text,20,847843,81,6108ba2774a08a10c085bb41,610ac73ca130127aa1f0e9a1,610999778e6142549b918cce,610ac73ca130127aa1f0e9a1,"{""Q0"":""10"",""Q1"":""8"",""Q2"":""10"",""Q3"":""1"",""Q4"":""}","""","""","""","""",""""
256,356,356,7,3,"[{""page_index"":0,""viewing_time"":4174.399999976158},{""page_index"":1,""viewing_time"":2484.399999976158},{""page_index"":2,""viewing_time"":14209.900000095367},{""page_index"":3,""viewing_time"":2695.1999999284744},{""page_index"":4,""viewing_time"":1013.5}]",24578.2,instructions,0,24594,68,6108ba2774a08a10c085bb41,610ac752a068dc7bb00176f0,610388b936d45e692a5cf4d2,610ac752a068dc7bb00176f0,"""","""","""","""","""",""""
257,357,357,7,3,"""",5134.3,survey-multi-choice,1,29734,68,6108ba2774a08a10c085bb41,610ac752a068dc7bb00176f0,610388b936d45e692a5cf4d2,610ac752a068dc7bb00176f0,"{""Q0"":""Plans to achieve goals."",""Q1"":""By writing text.""}","[0,1]","""","""","""",""""
258,358,358,7,3,"[{""page_index"":0,""viewing_time"":1135.5}]",1135.8,instructions,2,30875,68,6108ba2774a08a10c085bb41,610ac752a068dc7bb00176f0,610388b936d45e692a5cf4d2,610ac752a068dc7bb00176f0,"""","""","""","""","""",""""
259,359,359,7,3,"""",107641.5,survey-text,3,138530,68,6108ba2774a08a10c085bb41,610ac752a068dc7bb00176f0,610388b936d45e692a5cf4d2,610ac752a068dc7bb00176f0,"{""Plan"":""One method of effectively ordering food where I don't speak the native language would be to point at items or pictures on the menu. This does not require understanding the native language.""}","""",test,"Order food in a restaurant, where you don't speak the native language.",generate plans,"without using a translator app, a human translator, your fingers, or sign language"
260,360,360,7,3,"""",137438.2,survey-text,4,275976,68,6108ba2774a08a10c085bb41,610ac752a068dc7bb00176f0,610388b936d45e692a5cf4d2,610ac752a068dc7bb00176f0,"{""Plan"":""I would choose a theme that is unrelated to Christmas. For example, I could decorate the Christmas tree with a movie theater theme for a Christmas movie showing. I would strategically place popcorn buckets filled with popcorn around the tree, along with old film strips and various candy boxes.""}","""",test,Decorate the world's largest Christmas tree.,generate plans,"without using lights, Christmas decorations, or fake leaves"
261,361,361,7,3,"""",76171.6,survey-text,5,352157,68,6108ba2774a08a10c085bb41,610ac752a068dc7bb00176f0,610388b936d45e692a5cf4d2,610ac752a068dc7bb00176f0,"{""Plan"":""I would use a crowbar to cut down a tree. I could hack at the tree stem and pull with the angled edge of the crowbar.""}","""",test,Cut down a tree.,generate plans,"without using a chainsaw, an axe, or a lorry"
262,362,362,7,3,"""",278145.8,survey-text,6,630324,68,6108ba2774a08a10c085bb41,610ac752a068dc7bb00176f0,610388b936d45e692a5cf4d2,610ac752a068dc7bb00176f0,"{""Plan"":""I would attempt to use nature to steer the canoe from falling down the waterfall, like grabbing onto tree branches.""}","""",test,Stop your canoe from falling down the waterfall.,generate plans,"without using a paddle, a rock, or a rope"
263,363,363,7,3,"""",109720.8,survey-text,7,740052,68,6108ba2774a08a10c085bb41,610ac752a068dc7bb00176f0,610388b936d45e692a5cf4d2,610ac752a068dc7bb00176f0,"{""Plan"":""I would feed the lion vegetables that assist in removing plaque from the teeth. This includes spinach and carrots.""}","""",test,Remove plaque from the teeth of a lion.,generate plans,"without using a tranquilizer, meat, a sleeping drug, or animal specialists"
