,index,run_id,condition,view_history,rt,trial_type,trial_index,time_elapsed,PROLIFIC_PID,STUDY_ID,SESSION_ID,subject_id,session_id,response,question_order,phase,prompt,task,constraint
0,0,1,4,"[{""page_index"":0,""viewing_time"":8470.300000011921},{""page_index"":1,""viewing_time"":50107.09999999404},{""page_index"":2,""viewing_time"":12588.40000000596},{""page_index"":3,""viewing_time"":13489},{""page_index"":4,""viewing_time"":933.7999999821186}]",85590.40000000596,instructions,0,85602,69,6108b8e4431de3b4142c21c9,610ac4ced82ec456115aed14,60fdeae64720933d1347ac81,610ac4ced82ec456115aed14,"""","""","""","""","""",""""
1,1,1,4,"""",14287.799999982119,survey-multi-choice,1,99900,69,6108b8e4431de3b4142c21c9,610ac4ced82ec456115aed14,60fdeae64720933d1347ac81,610ac4ced82ec456115aed14,"{""Q0"":""Plans to achieve goals."",""Q1"":""By writing text.""}","[0,1]","""","""","""",""""
2,2,1,4,"[{""page_index"":0,""viewing_time"":1209.9000000059605}]",1210.2000000178814,instructions,2,101114,69,6108b8e4431de3b4142c21c9,610ac4ced82ec456115aed14,60fdeae64720933d1347ac81,610ac4ced82ec456115aed14,"""","""","""","""","""",""""
3,3,1,4,"""",95342.19999998808,survey-text,3,196485,69,6108b8e4431de3b4142c21c9,610ac4ced82ec456115aed14,60fdeae64720933d1347ac81,610ac4ced82ec456115aed14,"{""Plan"":""First, I would check to see what is causing the flat tire. After finding the puncture I would assess how big the hole is. I carry around store bought flat tire sealant and a tire pump, so I am prepared to fix it. I would seal up the puncture using the store bought product and continue on to put air back into the tire until it was at the correct psi.""}","""",test,Fix a flat tire.,generate plans,without using a spare tire
4,4,1,4,"""",80487.20000001788,survey-text,4,276980,69,6108b8e4431de3b4142c21c9,610ac4ced82ec456115aed14,60fdeae64720933d1347ac81,610ac4ced82ec456115aed14,"{""Plan"":""Water is an essential for keeping plants alive, since I cannot water it myself I would put them in a garden outside that way when it rains the plants will receive water. I would also make sure that the plants are in a well-lit area so that they have access to sunlight and are planted in enough soil to grow and absorb nutrients.""}","""",test,Keep the plants in your garden alive.,generate plans,without using water
5,5,1,4,"""",119595.5,survey-text,5,396585,69,6108b8e4431de3b4142c21c9,610ac4ced82ec456115aed14,60fdeae64720933d1347ac81,610ac4ced82ec456115aed14,"{""Plan"":""I would probably make a fort in a pond since there would be no current or waves to combat. I would also make sure the area is not too deep so that I don't have to go very far without an oxygen tank. I would use a snorkel so that I could stay near the surface and breathe while managing to place some type of structure in the shallow water. I would resort to holding my breath whenever I needed to go underwater fully.""}","""",test,Make a fort underwater.,generate plans,without using an oxygen tank
6,6,1,4,"""",60649.10000002384,survey-text,6,457243,69,6108b8e4431de3b4142c21c9,610ac4ced82ec456115aed14,60fdeae64720933d1347ac81,610ac4ced82ec456115aed14,"{""Plan"":""I would use warm water and a steel wool to scrub at any residue. I would then place the dishes in a basic with hot, steaming water and let them soak since hot water kills bacteria.""}","""",test,Clean the dirty dishes.,generate plans,without using soap
7,7,1,4,"""",38238.30000001192,survey-text,7,495490,69,6108b8e4431de3b4142c21c9,610ac4ced82ec456115aed14,60fdeae64720933d1347ac81,610ac4ced82ec456115aed14,"{""Plan"":""I would put out a large air mattress for the skydiver to fall into.""}","""",test,Create a safe landing for a falling skydiver.,generate plans,without using a net
8,8,1,4,"""",61538.19999998808,survey-text,8,557036,69,6108b8e4431de3b4142c21c9,610ac4ced82ec456115aed14,60fdeae64720933d1347ac81,610ac4ced82ec456115aed14,"{""Plan"":""I would grab a blanket off of the couch and snuff out the flames by bundling it up and putting it on top and stomping them out. ""}","""",test,Put out a fire that started near the wires from your TV.,generate plans,without using a fire extinguisher
9,9,1,4,"""",42256.39999997616,survey-text,9,599300,69,6108b8e4431de3b4142c21c9,610ac4ced82ec456115aed14,60fdeae64720933d1347ac81,610ac4ced82ec456115aed14,"{""Plan"":""I would hire a team of divers to go diving in the cove and count how many sharks there are, possibly having them tag them while they are at it.""}","""",test,Find out how many sharks live in a cove off a nearby coast.,generate plans,without using bait
10,10,1,4,"[{""page_index"":0,""viewing_time"":2487.5999999940395},{""page_index"":1,""viewing_time"":71565.90000000596}]",74054.40000000596,instructions,10,673358,69,6108b8e4431de3b4142c21c9,610ac4ced82ec456115aed14,60fdeae64720933d1347ac81,610ac4ced82ec456115aed14,"""","""","""","""","""",""""
11,11,1,4,"""",4801.300000011921,survey-multi-choice,11,678164,69,6108b8e4431de3b4142c21c9,610ac4ced82ec456115aed14,60fdeae64720933d1347ac81,610ac4ced82ec456115aed14,"{""Q0"":""How frequently you think people try to achieve each goal."",""Q1"":""By selecting an option from a multiple choice scale.""}","[0,1]","""","""","""",""""
12,12,1,4,"[{""page_index"":0,""viewing_time"":884.8999999761581}]",886.1999999880791,instructions,12,679052,69,6108b8e4431de3b4142c21c9,610ac4ced82ec456115aed14,60fdeae64720933d1347ac81,610ac4ced82ec456115aed14,"""","""","""","""","""",""""
13,13,1,4,"""",12799.59999999404,survey-likert,13,691856,69,6108b8e4431de3b4142c21c9,610ac4ced82ec456115aed14,60fdeae64720933d1347ac81,610ac4ced82ec456115aed14,"{""freq"":2}",[0],"""",Fix a flat tire.,rate plans,without using a spare tire
14,14,1,4,"""",6532,survey-likert,14,698394,69,6108b8e4431de3b4142c21c9,610ac4ced82ec456115aed14,60fdeae64720933d1347ac81,610ac4ced82ec456115aed14,"{""freq"":6}",[0],"""",Keep the plants in your garden alive.,rate plans,without using water
15,15,1,4,"""",6451.4000000059605,survey-likert,15,704850,69,6108b8e4431de3b4142c21c9,610ac4ced82ec456115aed14,60fdeae64720933d1347ac81,610ac4ced82ec456115aed14,"{""freq"":5}",[0],"""",Make a fort underwater.,rate plans,without using an oxygen tank
16,16,1,4,"""",10794.699999988079,survey-likert,16,715650,69,6108b8e4431de3b4142c21c9,610ac4ced82ec456115aed14,60fdeae64720933d1347ac81,610ac4ced82ec456115aed14,"{""freq"":2}",[0],"""",Clean the dirty dishes.,rate plans,without using soap
17,17,1,4,"""",6137.5999999940395,survey-likert,17,721792,69,6108b8e4431de3b4142c21c9,610ac4ced82ec456115aed14,60fdeae64720933d1347ac81,610ac4ced82ec456115aed14,"{""freq"":4}",[0],"""",Create a safe landing for a falling skydiver.,rate plans,without using a net
18,18,1,4,"""",5092.5999999940395,survey-likert,18,726888,69,6108b8e4431de3b4142c21c9,610ac4ced82ec456115aed14,60fdeae64720933d1347ac81,610ac4ced82ec456115aed14,"{""freq"":3}",[0],"""",Put out a fire that started near the wires from your TV.,rate plans,without using a fire extinguisher
19,19,1,4,"""",4991.700000017881,survey-likert,19,731884,69,6108b8e4431de3b4142c21c9,610ac4ced82ec456115aed14,60fdeae64720933d1347ac81,610ac4ced82ec456115aed14,"{""freq"":4}",[0],"""",Find out how many sharks live in a cove off a nearby coast.,rate plans,without using bait
20,20,1,4,"""",14394,survey-text,20,746285,69,6108b8e4431de3b4142c21c9,610ac4ced82ec456115aed14,60fdeae64720933d1347ac81,610ac4ced82ec456115aed14,"{""Q0"":""10"",""Q1"":""5"",""Q2"":""7"",""Q3"":""1"",""Q4"":""}","""","""","""","""",""""
21,21,11,3,"[{""page_index"":0,""viewing_time"":21691.599999997765},{""page_index"":1,""viewing_time"":8585.300000000745},{""page_index"":2,""viewing_time"":22379.699999999255},{""page_index"":3,""viewing_time"":26168.70000000298},{""page_index"":4,""viewing_time"":6207.099999997765}]",85033.80000000075,instructions,0,85042,75,6108b8e4431de3b4142c21c9,610ac8c36e2c133a20c383dc,610760737989a9ddd4014107,610ac8c36e2c133a20c383dc,"""","""","""","""","""",""""
22,22,11,3,"""",13635,survey-multi-choice,1,98687,75,6108b8e4431de3b4142c21c9,610ac8c36e2c133a20c383dc,610760737989a9ddd4014107,610ac8c36e2c133a20c383dc,"{""Q0"":""Plans to achieve goals."",""Q1"":""By writing text.""}","[0,1]","""","""","""",""""
23,23,11,3,"[{""page_index"":0,""viewing_time"":2344.5}]",2344.699999999255,instructions,2,101034,75,6108b8e4431de3b4142c21c9,610ac8c36e2c133a20c383dc,610760737989a9ddd4014107,610ac8c36e2c133a20c383dc,"""","""","""","""","""",""""
24,24,11,3,"""",468935.1000000015,survey-text,3,569982,75,6108b8e4431de3b4142c21c9,610ac8c36e2c133a20c383dc,610760737989a9ddd4014107,610ac8c36e2c133a20c383dc,"{""Plan"":""with the assistance of a cherry picker I would begin by covering the tree in tinsel, placing ornaments,  hanging candy canes, putting big novelty present boxes underneath the tree, and finally placing a star on top.""}","""",test,Decorate the world's largest Christmas tree.,generate plans,without using lights
25,25,11,3,"""",307938.3999999985,survey-text,4,877989,75,6108b8e4431de3b4142c21c9,610ac8c36e2c133a20c383dc,610760737989a9ddd4014107,610ac8c36e2c133a20c383dc,"{""Plan"":""Using an axe begin by chopping at the base of the trunk. Chop at the tree in the same place until you've reached the center of the trunk. Repeat on the opposite side.""}","""",test,Cut down a tree.,generate plans,without using a chainsaw
26,26,11,3,"""",174170.8999999985,survey-text,5,1052172,75,6108b8e4431de3b4142c21c9,610ac8c36e2c133a20c383dc,610760737989a9ddd4014107,610ac8c36e2c133a20c383dc,"{""Plan"":""Order plaque removing tablets online, then place in the drinking water of the lion. ""}","""",test,Remove plaque from the teeth of a lion.,generate plans,without using a tranquilizer
27,27,11,3,"""",601191.8000000007,survey-text,6,1653388,75,6108b8e4431de3b4142c21c9,610ac8c36e2c133a20c383dc,610760737989a9ddd4014107,610ac8c36e2c133a20c383dc,"{""Plan"":""I would build a bookshelf out of metal by enlisting the help of a  blacksmith.""}","""",test,Build a bookshelf.,generate plans,without using wood
28,28,11,3,"""",103901.5,survey-text,7,1757301,75,6108b8e4431de3b4142c21c9,610ac8c36e2c133a20c383dc,610760737989a9ddd4014107,610ac8c36e2c133a20c383dc,"{""Plan"":""I would anchor the canoe to stop it from falling down the waterfall. ""}","""",test,Stop your canoe from falling down the waterfall.,generate plans,without using a paddle
29,29,11,3,"""",110422.90000000596,survey-text,8,1867734,75,6108b8e4431de3b4142c21c9,610ac8c36e2c133a20c383dc,610760737989a9ddd4014107,610ac8c36e2c133a20c383dc,"{""Plan"":""I would provide the baby platypus with delicious food to keep it entertained and satiated.""}","""",test,Keep a baby platupyus entertained.,generate plans,without using a ball
30,30,11,3,"""",66496.80000000447,survey-text,9,1934263,75,6108b8e4431de3b4142c21c9,610ac8c36e2c133a20c383dc,610760737989a9ddd4014107,610ac8c36e2c133a20c383dc,"{""Plan"":""I would point to the picture or word of the item that i'm ordering.""}","""",test,"Order food in a restaurant, where you don't speak the native language.",generate plans,without using a translator app
31,31,11,3,"[{""page_index"":0,""viewing_time"":6227.70000000298},{""page_index"":1,""viewing_time"":41795.70000000298}]",48023.80000000447,instructions,10,1982292,75,6108b8e4431de3b4142c21c9,610ac8c36e2c133a20c383dc,610760737989a9ddd4014107,610ac8c36e2c133a20c383dc,"""","""","""","""","""",""""
32,32,11,3,"""",15342.10000000149,survey-multi-choice,11,1997638,75,6108b8e4431de3b4142c21c9,610ac8c36e2c133a20c383dc,610760737989a9ddd4014107,610ac8c36e2c133a20c383dc,"{""Q0"":""How frequently you think people try to achieve each goal."",""Q1"":""By selecting an option from a multiple choice scale.""}","[0,1]","""","""","""",""""
33,33,11,3,"[{""page_index"":0,""viewing_time"":2307.7000000029802}]",2308,instructions,12,1999948,75,6108b8e4431de3b4142c21c9,610ac8c36e2c133a20c383dc,610760737989a9ddd4014107,610ac8c36e2c133a20c383dc,"""","""","""","""","""",""""
34,34,11,3,"""",25067.40000000596,survey-likert,13,2025023,75,6108b8e4431de3b4142c21c9,610ac8c36e2c133a20c383dc,610760737989a9ddd4014107,610ac8c36e2c133a20c383dc,"{""freq"":4}",[0],"""",Decorate the world's largest Christmas tree.,rate plans,without using lights
35,35,11,3,"""",14563.79999999702,survey-likert,14,2039591,75,6108b8e4431de3b4142c21c9,610ac8c36e2c133a20c383dc,610760737989a9ddd4014107,610ac8c36e2c133a20c383dc,"{""freq"":3}",[0],"""",Cut down a tree.,rate plans,without using a chainsaw
36,36,11,3,"""",15756.79999999702,survey-likert,15,2055356,75,6108b8e4431de3b4142c21c9,610ac8c36e2c133a20c383dc,610760737989a9ddd4014107,610ac8c36e2c133a20c383dc,"{""freq"":4}",[0],"""",Remove plaque from the teeth of a lion.,rate plans,without using a tranquilizer
37,37,11,3,"""",7961.10000000149,survey-likert,16,2063321,75,6108b8e4431de3b4142c21c9,610ac8c36e2c133a20c383dc,610760737989a9ddd4014107,610ac8c36e2c133a20c383dc,"{""freq"":3}",[0],"""",Build a bookshelf.,rate plans,without using wood
38,38,11,3,"""",30947.30000000447,survey-likert,17,2094275,75,6108b8e4431de3b4142c21c9,610ac8c36e2c133a20c383dc,610760737989a9ddd4014107,610ac8c36e2c133a20c383dc,"{""freq"":4}",[0],"""",Stop your canoe from falling down the waterfall.,rate plans,without using a paddle
39,39,11,3,"""",15819.30000000447,survey-likert,18,2110098,75,6108b8e4431de3b4142c21c9,610ac8c36e2c133a20c383dc,610760737989a9ddd4014107,610ac8c36e2c133a20c383dc,"{""freq"":3}",[0],"""",Keep a baby platupyus entertained.,rate plans,without using a ball
40,40,11,3,"""",19846.5,survey-likert,19,2129951,75,6108b8e4431de3b4142c21c9,610ac8c36e2c133a20c383dc,610760737989a9ddd4014107,610ac8c36e2c133a20c383dc,"{""freq"":2}",[0],"""","Order food in a restaurant, where you don't speak the native language.",rate plans,without using a translator app
41,41,11,3,"""",47457.30000000447,survey-text,20,2177416,75,6108b8e4431de3b4142c21c9,610ac8c36e2c133a20c383dc,610760737989a9ddd4014107,610ac8c36e2c133a20c383dc,"{""Q0"":""10"",""Q1"":""4"",""Q2"":""8"",""Q3"":""4"",""Q4"":""}","""","""","""","""",""""
42,42,12,2,"[{""page_index"":0,""viewing_time"":19054.400000000373},{""page_index"":1,""viewing_time"":25202.099999999627},{""page_index"":2,""viewing_time"":15927.900000000373},{""page_index"":3,""viewing_time"":19270.199999999255},{""page_index"":4,""viewing_time"":3551.0999999996275}]",83006.40000000037,instructions,0,83010,82,6108b8e4431de3b4142c21c9,610ac8c33ef9fa767475e785,610970fffffcf90ea0bcc805,610ac8c33ef9fa767475e785,"""","""","""","""","""",""""
43,43,12,2,"""",15902.800000000745,survey-multi-choice,1,98916,82,6108b8e4431de3b4142c21c9,610ac8c33ef9fa767475e785,610970fffffcf90ea0bcc805,610ac8c33ef9fa767475e785,"{""Q0"":""Plans to achieve goals."",""Q1"":""By writing text.""}","[0,1]","""","""","""",""""
44,44,12,2,"[{""page_index"":0,""viewing_time"":3456.39999999851}]",3457,instructions,2,102374,82,6108b8e4431de3b4142c21c9,610ac8c33ef9fa767475e785,610970fffffcf90ea0bcc805,610ac8c33ef9fa767475e785,"""","""","""","""","""",""""
45,45,12,2,"""",212840.29999999888,survey-text,3,315229,82,6108b8e4431de3b4142c21c9,610ac8c33ef9fa767475e785,610970fffffcf90ea0bcc805,610ac8c33ef9fa767475e785,"{""Plan"":""To get the championship trophy from behind the award case, you would first need to get a key from one of the faculty members. To do that you would need multiple people to pull off the plan. You would need at least two people to distract the faculty member well enough so you could get the key. Then while they are still distracting them you will have time to go get the trophy, relock the award case, and return the key before any notices.""}","""",test,Steal the championship trophy from behind your school's award case.,generate plans,without using a hammer
46,46,12,2,"""",195466.80000000075,survey-text,4,510699,82,6108b8e4431de3b4142c21c9,610ac8c33ef9fa767475e785,610970fffffcf90ea0bcc805,610ac8c33ef9fa767475e785,"{""Plan"":""To get your soft on top of your roof without using a pully would involve a lot of people and two ladders. You would need to have a few people on the ground, two to three people on each ladder, and a few people on the roof. As the few people on the ground are lifting the sofa, the people on the ladder can also start pulling/lifting the sofa up as far as they can. Once the people on the roof can get their hands on the sofa, they too can start help pulling it on to the roof. ""}","""",test,Get your sofa onto the roof of your house.,generate plans,without using a pulley
47,47,12,2,"""",90242.29999999888,survey-text,5,600947,82,6108b8e4431de3b4142c21c9,610ac8c33ef9fa767475e785,610970fffffcf90ea0bcc805,610ac8c33ef9fa767475e785,"{""Plan"":""There are many things you could use to play baseball without a bat. You can go find a broom and untwist the sweeper part nd use the broom handle as a bat. You could also find a stick or a broken piece of ply wood to use as a bat.\n""}","""",test,Play baseball with your friends.,generate plans,without using a bat
48,48,12,2,"""",131112.6000000015,survey-text,6,732063,82,6108b8e4431de3b4142c21c9,610ac8c33ef9fa767475e785,610970fffffcf90ea0bcc805,610ac8c33ef9fa767475e785,"{""Plan"":""Taking the dog on a walk without a leash is easy. The first thing you have to do is make sure your dog will listen to you and not just run off. The second thing to do is to keep a close eye on the dog so it doesn't run into the street. And lastly you want to walk on the side of the sidewalk closest to the road so you can at least attempt to catch your dog before/if it runs into the road.""}","""",test,Take your dog for a walk.,generate plans,without using a leash
49,49,12,2,"""",127805.69999999925,survey-text,7,859875,82,6108b8e4431de3b4142c21c9,610ac8c33ef9fa767475e785,610970fffffcf90ea0bcc805,610ac8c33ef9fa767475e785,"{""Plan"":""They are many ways you could help without using billboards. You could use posters to put up all around town and you could make merchandise such as pins and t-shirts to hand out to people. Lastly you can help the mayor with his rallies, you could help him plan them, such as the date, place an time. You could help him run the rallies as well.\n""}","""",test,Help your local town mayor win re-election.,generate plans,without using billboards
50,50,12,2,"""",87833.40000000037,survey-text,8,947710,82,6108b8e4431de3b4142c21c9,610ac8c33ef9fa767475e785,610970fffffcf90ea0bcc805,610ac8c33ef9fa767475e785,"{""Plan"":""To cool down in a record=breaking heat wave you can only have one plan and that plan is to find a swimming pool. You could research the closest public swimming pool or if you have a friend or relative who has a swimming pool, you could ask if you could come over and use it.""}","""",test,Cool down in a record-breaking heat wave.,generate plans,without using an air conditioner
51,51,12,2,"""",73754.40000000037,survey-text,9,1021469,82,6108b8e4431de3b4142c21c9,610ac8c33ef9fa767475e785,610970fffffcf90ea0bcc805,610ac8c33ef9fa767475e785,"{""Plan"":""There are many different types of materials to use for shoes such as suede, cotton, or plastic. You could then watch a YouTube video/research how to use those materials to make shoes.""}","""",test,Make a pair of new shoes.,generate plans,without using leather
52,52,12,2,"[{""page_index"":0,""viewing_time"":3502.39999999851},{""page_index"":1,""viewing_time"":21018}]",24521.5,instructions,10,1045991,82,6108b8e4431de3b4142c21c9,610ac8c33ef9fa767475e785,610970fffffcf90ea0bcc805,610ac8c33ef9fa767475e785,"""","""","""","""","""",""""
53,53,12,2,"""",14979.699999999255,survey-multi-choice,11,1060976,82,6108b8e4431de3b4142c21c9,610ac8c33ef9fa767475e785,610970fffffcf90ea0bcc805,610ac8c33ef9fa767475e785,"{""Q0"":""How frequently you think people try to achieve each goal."",""Q1"":""By selecting an option from a multiple choice scale.""}","[0,1]","""","""","""",""""
54,54,12,2,"[{""page_index"":0,""viewing_time"":1079.800000000745}]",1080.4000000003725,instructions,12,1062058,82,6108b8e4431de3b4142c21c9,610ac8c33ef9fa767475e785,610970fffffcf90ea0bcc805,610ac8c33ef9fa767475e785,"""","""","""","""","""",""""
55,55,12,2,"""",36828.5,survey-likert,13,1098892,82,6108b8e4431de3b4142c21c9,610ac8c33ef9fa767475e785,610970fffffcf90ea0bcc805,610ac8c33ef9fa767475e785,"{""freq"":3}",[0],"""",Steal the championship trophy from behind your school's award case.,rate plans,without using a hammer
56,56,12,2,"""",11978.300000000745,survey-likert,14,1110875,82,6108b8e4431de3b4142c21c9,610ac8c33ef9fa767475e785,610970fffffcf90ea0bcc805,610ac8c33ef9fa767475e785,"{""freq"":5}",[0],"""",Get your sofa onto the roof of your house.,rate plans,without using a pulley
57,57,12,2,"""",14539.400000000373,survey-likert,15,1125420,82,6108b8e4431de3b4142c21c9,610ac8c33ef9fa767475e785,610970fffffcf90ea0bcc805,610ac8c33ef9fa767475e785,"{""freq"":2}",[0],"""",Play baseball with your friends.,rate plans,without using a bat
58,58,12,2,"""",12887.799999998882,survey-likert,16,1138310,82,6108b8e4431de3b4142c21c9,610ac8c33ef9fa767475e785,610970fffffcf90ea0bcc805,610ac8c33ef9fa767475e785,"{""freq"":1}",[0],"""",Take your dog for a walk.,rate plans,without using a leash
59,59,12,2,"""",17934,survey-likert,17,1156250,82,6108b8e4431de3b4142c21c9,610ac8c33ef9fa767475e785,610970fffffcf90ea0bcc805,610ac8c33ef9fa767475e785,"{""freq"":3}",[0],"""",Help your local town mayor win re-election.,rate plans,without using billboards
60,60,12,2,"""",11593.799999998882,survey-likert,18,1167848,82,6108b8e4431de3b4142c21c9,610ac8c33ef9fa767475e785,610970fffffcf90ea0bcc805,610ac8c33ef9fa767475e785,"{""freq"":5}",[0],"""",Cool down in a record-breaking heat wave.,rate plans,without using an air conditioner
61,61,12,2,"""",8783.10000000149,survey-likert,19,1176636,82,6108b8e4431de3b4142c21c9,610ac8c33ef9fa767475e785,610970fffffcf90ea0bcc805,610ac8c33ef9fa767475e785,"{""freq"":4}",[0],"""",Make a pair of new shoes.,rate plans,without using leather
62,62,12,2,"""",44677.09999999963,survey-text,20,1221318,82,6108b8e4431de3b4142c21c9,610ac8c33ef9fa767475e785,610970fffffcf90ea0bcc805,610ac8c33ef9fa767475e785,"{""Q0"":""10"",""Q1"":""1"",""Q2"":""5"",""Q3"":""1"",""Q4"":""}","""","""","""","""",""""
63,63,13,1,"[{""page_index"":0,""viewing_time"":8350},{""page_index"":1,""viewing_time"":15442.59999999404},{""page_index"":2,""viewing_time"":8120},{""page_index"":3,""viewing_time"":15430.90000000596},{""page_index"":4,""viewing_time"":3825.5999999940395}]",51169.79999999702,instructions,0,51184,79,6108b8e4431de3b4142c21c9,610ac8a61652891d48965353,610867cb465482e3ec238c98,610ac8a61652891d48965353,"""","""","""","""","""",""""
64,64,13,1,"""",11044.70000000298,survey-multi-choice,1,62234,79,6108b8e4431de3b4142c21c9,610ac8a61652891d48965353,610867cb465482e3ec238c98,610ac8a61652891d48965353,"{""Q0"":""Plans to achieve goals."",""Q1"":""By writing text.""}","[0,1]","""","""","""",""""
65,65,13,1,"[{""page_index"":0,""viewing_time"":2179.199999988079}]",2179.2999999970198,instructions,2,64418,79,6108b8e4431de3b4142c21c9,610ac8a61652891d48965353,610867cb465482e3ec238c98,610ac8a61652891d48965353,"""","""","""","""","""",""""
66,66,13,1,"""",41199.89999999106,survey-text,3,105630,79,6108b8e4431de3b4142c21c9,610ac8a61652891d48965353,610867cb465482e3ec238c98,610ac8a61652891d48965353,"{""Plan"":""Ask the man to crouch down on all fours, then jump over his now reduced height.""}","""",test,Jump over a six foot tall man.,generate plans,without using a trampoline
67,67,13,1,"""",70760.5,survey-text,4,176398,79,6108b8e4431de3b4142c21c9,610ac8a61652891d48965353,610867cb465482e3ec238c98,610ac8a61652891d48965353,"{""Plan"":""Buy a large truck and ensure that it is the best decorated with lights, balloons, and dancers to distract from the fact that the float will be smaller without a trailer. ""}","""",test,Build a float to dazzle the crowd at the Macy's Day Parade.,generate plans,without using a trailer
68,68,13,1,"""",86249.10000000894,survey-text,5,262656,79,6108b8e4431de3b4142c21c9,610ac8a61652891d48965353,610867cb465482e3ec238c98,610ac8a61652891d48965353,"{""Plan"":""First, stay very still to keep from sinking in the quicksand. Second, always go hiking with a rope and partner. Throw your rope to your partner and have them pull you out. ""}","""",test,Escape quicksand.,generate plans,without using a branch
69,69,13,1,"""",168730.20000000298,survey-text,6,431396,79,6108b8e4431de3b4142c21c9,610ac8a61652891d48965353,610867cb465482e3ec238c98,610ac8a61652891d48965353,"{""Plan"":""To protect the deer I would install a large system of floodlights in the woods to scare deer away from areas where there may be hunters present. ""}","""",test,Protect the deer in your nearby woods during hunting season.,generate plans,without using signs
70,70,13,1,"""",62806.5,survey-text,7,494210,79,6108b8e4431de3b4142c21c9,610ac8a61652891d48965353,610867cb465482e3ec238c98,610ac8a61652891d48965353,"{""Plan"":""First, look for a window to break and escape. If there is no window, use something in the closet to slide under the door the attract the attention of a passerby. ""}","""",test,Escape from inside a locked custodial closet.,generate plans,without using a phone
71,71,13,1,"""",33000.09999999404,survey-text,8,527213,79,6108b8e4431de3b4142c21c9,610ac8a61652891d48965353,610867cb465482e3ec238c98,610ac8a61652891d48965353,"{""Plan"":""Step one: Buy spray paint. Step two: paint the fence.""}","""",test,Paint a fence.,generate plans,without using a paint brush
72,72,13,1,"""",140551.40000000596,survey-text,9,667774,79,6108b8e4431de3b4142c21c9,610ac8a61652891d48965353,610867cb465482e3ec238c98,610ac8a61652891d48965353,"{""Plan"":""First, create the cake batter using all the necessary ingredients for a cake. Next, using a charcoal grill, put the cake in a cake pan, cover it with tinfoil, and grill on medium heat for about 40 minutes.  ""}","""",test,Bake a cake.,generate plans,without using an oven
73,73,13,1,"[{""page_index"":0,""viewing_time"":14128.199999988079},{""page_index"":1,""viewing_time"":20295.10000000894}]",34424,instructions,10,702200,79,6108b8e4431de3b4142c21c9,610ac8a61652891d48965353,610867cb465482e3ec238c98,610ac8a61652891d48965353,"""","""","""","""","""",""""
74,74,13,1,"""",9423.10000000894,survey-multi-choice,11,711626,79,6108b8e4431de3b4142c21c9,610ac8a61652891d48965353,610867cb465482e3ec238c98,610ac8a61652891d48965353,"{""Q0"":""How frequently you think people try to achieve each goal."",""Q1"":""By selecting an option from a multiple choice scale.""}","[0,1]","""","""","""",""""
75,75,13,1,"[{""page_index"":0,""viewing_time"":1318.7999999970198}]",1319.0999999940395,instructions,12,712949,79,6108b8e4431de3b4142c21c9,610ac8a61652891d48965353,610867cb465482e3ec238c98,610ac8a61652891d48965353,"""","""","""","""","""",""""
76,76,13,1,"""",11213,survey-likert,13,724166,79,6108b8e4431de3b4142c21c9,610ac8a61652891d48965353,610867cb465482e3ec238c98,610ac8a61652891d48965353,"{""freq"":4}",[0],"""",Jump over a six foot tall man.,rate plans,without using a trampoline
77,77,13,1,"""",16370.90000000596,survey-likert,14,740542,79,6108b8e4431de3b4142c21c9,610ac8a61652891d48965353,610867cb465482e3ec238c98,610ac8a61652891d48965353,"{""freq"":4}",[0],"""",Build a float to dazzle the crowd at the Macy's Day Parade.,rate plans,without using a trailer
78,78,13,1,"""",5066,survey-likert,15,745616,79,6108b8e4431de3b4142c21c9,610ac8a61652891d48965353,610867cb465482e3ec238c98,610ac8a61652891d48965353,"{""freq"":5}",[0],"""",Escape quicksand.,rate plans,without using a branch
79,79,13,1,"""",6327.800000011921,survey-likert,16,751948,79,6108b8e4431de3b4142c21c9,610ac8a61652891d48965353,610867cb465482e3ec238c98,610ac8a61652891d48965353,"{""freq"":3}",[0],"""",Protect the deer in your nearby woods during hunting season.,rate plans,without using signs
80,80,13,1,"""",7113.100000008941,survey-likert,17,759068,79,6108b8e4431de3b4142c21c9,610ac8a61652891d48965353,610867cb465482e3ec238c98,610ac8a61652891d48965353,"{""freq"":3}",[0],"""",Escape from inside a locked custodial closet.,rate plans,without using a phone
81,81,13,1,"""",4037.199999988079,survey-likert,18,763110,79,6108b8e4431de3b4142c21c9,610ac8a61652891d48965353,610867cb465482e3ec238c98,610ac8a61652891d48965353,"{""freq"":3}",[0],"""",Paint a fence.,rate plans,without using a paint brush
82,82,13,1,"""",3915.5,survey-likert,19,767032,79,6108b8e4431de3b4142c21c9,610ac8a61652891d48965353,610867cb465482e3ec238c98,610ac8a61652891d48965353,"{""freq"":3}",[0],"""",Bake a cake.,rate plans,without using an oven
83,83,13,1,"""",24650.60000000894,survey-text,20,791693,79,6108b8e4431de3b4142c21c9,610ac8a61652891d48965353,610867cb465482e3ec238c98,610ac8a61652891d48965353,"{""Q0"":""10"",""Q1"":""7"",""Q2"":""8"",""Q3"":""2"",""Q4"":""}","""","""","""","""",""""
84,84,14,2,"[{""page_index"":0,""viewing_time"":8698.19999885559},{""page_index"":1,""viewing_time"":2745.7000007629395},{""page_index"":2,""viewing_time"":6818.10000038147},{""page_index"":3,""viewing_time"":8405.89999961853},{""page_index"":4,""viewing_time"":3573.8999996185303}]",30242.5,instructions,0,30251,78,6108b8e4431de3b4142c21c9,610ac8cc250ec3a2feccc326,61084fe5a39c183896119ce1,610ac8cc250ec3a2feccc326,"""","""","""","""","""",""""
85,85,14,2,"""",5049.400001525879,survey-multi-choice,1,35305,78,6108b8e4431de3b4142c21c9,610ac8cc250ec3a2feccc326,61084fe5a39c183896119ce1,610ac8cc250ec3a2feccc326,"{""Q0"":""Plans to achieve goals."",""Q1"":""By writing text.""}","[0,1]","""","""","""",""""
86,86,14,2,"[{""page_index"":0,""viewing_time"":1375.6999988555908}]",1375.8999996185303,instructions,2,36682,78,6108b8e4431de3b4142c21c9,610ac8cc250ec3a2feccc326,61084fe5a39c183896119ce1,610ac8cc250ec3a2feccc326,"""","""","""","""","""",""""
87,87,14,2,"""",184102.70000076294,survey-text,3,220796,78,6108b8e4431de3b4142c21c9,610ac8cc250ec3a2feccc326,61084fe5a39c183896119ce1,610ac8cc250ec3a2feccc326,"{""Plan"":""My plan is to first research ways to cool down without air conditioner in order to see if there are any ways I'm not already familiar with. Way number one would be to wear light colored and light weight clothing to keep from absorbing extra heat. Another method is to freeze wet towels and wrap them around your neck and head to keep cool. And lastly, if their is a fan available, you can sit a bucket of ice in front of the fan to create a makeshift air-conditioner. ""}","""",test,Cool down in a record-breaking heat wave.,generate plans,without using an air conditioner
88,88,14,2,"""",105354.19999885559,survey-text,4,326152,78,6108b8e4431de3b4142c21c9,610ac8cc250ec3a2feccc326,61084fe5a39c183896119ce1,610ac8cc250ec3a2feccc326,"{""Plan"":""I would first look at the shoes I have that aren't made with leather. I would see what kind of shoes can be made without leather and then decide to make that kind of shoes. I would also do research on how to make a shoe. I would read articles and watch YouTube videos. Finally I would follow instructions to make the shoe.""}","""",test,Make a pair of new shoes.,generate plans,without using leather
89,89,14,2,"""",154785.10000038147,survey-text,5,480942,78,6108b8e4431de3b4142c21c9,610ac8cc250ec3a2feccc326,61084fe5a39c183896119ce1,610ac8cc250ec3a2feccc326,"{""Plan"":""I would examine the award case and determine how best to get it open. I might ask an administrator or janitor if I could use one of the trophy's for a photoshoot and then observe how they get into the case. If a key is used to get in the case, I would plan out how to steal the key. Maybe convince the person that I was asked to use the set of keys for something else and then take the trophy case key. Finally I would go into the school when no one was around and take the trophy.""}","""",test,Steal the championship trophy from behind your school's award case.,generate plans,without using a hammer
90,90,14,2,"""",136086,survey-text,6,617030,78,6108b8e4431de3b4142c21c9,610ac8cc250ec3a2feccc326,61084fe5a39c183896119ce1,610ac8cc250ec3a2feccc326,"{""Plan"":""I would take a survey from my local town to see what kind of advertising people are most attracted to. I would also take a survey to see what the values/morals most people seem to prioritize and value. I would then use the advertising determined by the survey and capitalize on the values people hold dear. For example, if people in the town really value family, I would emphasize how the mayor is a family man. If they value honesty, I would emphasize on how honest the mayor has been in the past election and during his term. ""}","""",test,Help your local town mayor win re-election.,generate plans,without using billboards
91,91,14,2,"""",235635,survey-text,7,852669,78,6108b8e4431de3b4142c21c9,610ac8cc250ec3a2feccc326,61084fe5a39c183896119ce1,610ac8cc250ec3a2feccc326,"{""Plan"":""I would begin to train my dog using a slack leash. With this method you walk your dog with a lot of slack in the leash and only tug on the leash when the dog needs correction. Over time he learns to walk without a leash and listen to voice commands while staying at your side. I would then practice without a leash on a route that does not have many people or other dogs to eliminate distractions. Then overtime, I would introduce a few distractions at a time to get the dog used to obeying and staying focused in the presence of distractions while walking.""}","""",test,Take your dog for a walk.,generate plans,without using a leash
92,92,14,2,"""",174558.39999961853,survey-text,8,1027229,78,6108b8e4431de3b4142c21c9,610ac8cc250ec3a2feccc326,61084fe5a39c183896119ce1,610ac8cc250ec3a2feccc326,"{""Plan"":""Ideally I would find something that could be used as a bat. For example, a large stick, a wooden board, a pillow. But if we are playing with no bat and nothing to be used as a bat, I would suggest playing with a wiffle ball. You can play the game of baseball using the wiffle ball and using your hand as a bat. ""}","""",test,Play baseball with your friends.,generate plans,without using a bat
93,93,14,2,"""",334771.39999961853,survey-text,9,1362005,78,6108b8e4431de3b4142c21c9,610ac8cc250ec3a2feccc326,61084fe5a39c183896119ce1,610ac8cc250ec3a2feccc326,"{""Plan"":""I would first get a ladder tall enough to reach the roof of my house. I would then get a lot of strong people to come and help. We could line people up the ladder and, as a team, ease the sofa up to the top of the roof. ""}","""",test,Get your sofa onto the roof of your house.,generate plans,without using a pulley
94,94,14,2,"[{""page_index"":0,""viewing_time"":2030.7000007629395},{""page_index"":1,""viewing_time"":6371.89999961853}]",8403.39999961853,instructions,10,1370409,78,6108b8e4431de3b4142c21c9,610ac8cc250ec3a2feccc326,61084fe5a39c183896119ce1,610ac8cc250ec3a2feccc326,"""","""","""","""","""",""""
95,95,14,2,"""",6365,survey-multi-choice,11,1376777,78,6108b8e4431de3b4142c21c9,610ac8cc250ec3a2feccc326,61084fe5a39c183896119ce1,610ac8cc250ec3a2feccc326,"{""Q0"":""How frequently you think people try to achieve each goal."",""Q1"":""By selecting an option from a multiple choice scale.""}","[0,1]","""","""","""",""""
96,96,14,2,"[{""page_index"":0,""viewing_time"":1510.1000003814697}]",1510.7000007629395,instructions,12,1378289,78,6108b8e4431de3b4142c21c9,610ac8cc250ec3a2feccc326,61084fe5a39c183896119ce1,610ac8cc250ec3a2feccc326,"""","""","""","""","""",""""
97,97,14,2,"""",10410.70000076294,survey-likert,13,1388703,78,6108b8e4431de3b4142c21c9,610ac8cc250ec3a2feccc326,61084fe5a39c183896119ce1,610ac8cc250ec3a2feccc326,"{""freq"":2}",[0],"""",Cool down in a record-breaking heat wave.,rate plans,without using an air conditioner
98,98,14,2,"""",5680.60000038147,survey-likert,14,1394386,78,6108b8e4431de3b4142c21c9,610ac8cc250ec3a2feccc326,61084fe5a39c183896119ce1,610ac8cc250ec3a2feccc326,"{""freq"":5}",[0],"""",Make a pair of new shoes.,rate plans,without using leather
99,99,14,2,"""",4954.89999961853,survey-likert,15,1399344,78,6108b8e4431de3b4142c21c9,610ac8cc250ec3a2feccc326,61084fe5a39c183896119ce1,610ac8cc250ec3a2feccc326,"{""freq"":5}",[0],"""",Steal the championship trophy from behind your school's award case.,rate plans,without using a hammer
100,100,14,2,"""",4980.10000038147,survey-likert,16,1404326,78,6108b8e4431de3b4142c21c9,610ac8cc250ec3a2feccc326,61084fe5a39c183896119ce1,610ac8cc250ec3a2feccc326,"{""freq"":1}",[0],"""",Help your local town mayor win re-election.,rate plans,without using billboards
101,101,14,2,"""",5619,survey-likert,17,1409948,78,6108b8e4431de3b4142c21c9,610ac8cc250ec3a2feccc326,61084fe5a39c183896119ce1,610ac8cc250ec3a2feccc326,"{""freq"":1}",[0],"""",Take your dog for a walk.,rate plans,without using a leash
102,102,14,2,"""",4151.799999237061,survey-likert,18,1414102,78,6108b8e4431de3b4142c21c9,610ac8cc250ec3a2feccc326,61084fe5a39c183896119ce1,610ac8cc250ec3a2feccc326,"{""freq"":5}",[0],"""",Play baseball with your friends.,rate plans,without using a bat
103,103,14,2,"""",6566.900001525879,survey-likert,19,1420672,78,6108b8e4431de3b4142c21c9,610ac8cc250ec3a2feccc326,61084fe5a39c183896119ce1,610ac8cc250ec3a2feccc326,"{""freq"":3}",[0],"""",Get your sofa onto the roof of your house.,rate plans,without using a pulley
104,104,14,2,"""",31958.20000076294,survey-text,20,1452634,78,6108b8e4431de3b4142c21c9,610ac8cc250ec3a2feccc326,61084fe5a39c183896119ce1,610ac8cc250ec3a2feccc326,"{""Q0"":""10"",""Q1"":""7"",""Q2"":""4"",""Q3"":""3"",""Q4"":""I enjoyed this study!""}","""","""","""","""",""""
105,105,15,3,"[{""page_index"":0,""viewing_time"":7913.800000011921},{""page_index"":1,""viewing_time"":8851},{""page_index"":2,""viewing_time"":1810.1000000238419},{""page_index"":1,""viewing_time"":1671.5},{""page_index"":2,""viewing_time"":8808.399999976158},{""page_index"":3,""viewing_time"":14538.5},{""page_index"":4,""viewing_time"":2154}]",45748.90000003576,instructions,0,45761,80,6108b8e4431de3b4142c21c9,610ac8d31b136d02b868421c,6108706edcba9e0bf1135989,610ac8d31b136d02b868421c,"""","""","""","""","""",""""
106,106,15,3,"""",10926.800000011921,survey-multi-choice,1,56698,80,6108b8e4431de3b4142c21c9,610ac8d31b136d02b868421c,6108706edcba9e0bf1135989,610ac8d31b136d02b868421c,"{""Q0"":""Plans to achieve goals."",""Q1"":""By writing text.""}","[0,1]","""","""","""",""""
107,107,15,3,"[{""page_index"":0,""viewing_time"":1793.7000000476837}]",1794.2000000476837,instructions,2,58498,80,6108b8e4431de3b4142c21c9,610ac8d31b136d02b868421c,6108706edcba9e0bf1135989,610ac8d31b136d02b868421c,"""","""","""","""","""",""""
108,108,15,3,"""",118536.09999996424,survey-text,3,177059,80,6108b8e4431de3b4142c21c9,610ac8d31b136d02b868421c,6108706edcba9e0bf1135989,610ac8d31b136d02b868421c,"{""Plan"":""First, I will see if anyone at the restaurant has experience with speaking English who can translate for me. If no one can do this for me, then I will try to find a menu that has pictures so I can point to the waiter what I would like to get.""}","""",test,"Order food in a restaurant, where you don't speak the native language.",generate plans,without using a translator app
109,109,15,3,"""",198147.89999997616,survey-text,4,375279,80,6108b8e4431de3b4142c21c9,610ac8d31b136d02b868421c,6108706edcba9e0bf1135989,610ac8d31b136d02b868421c,"{""Plan"":""To decorate a Christmas tree without lights, I would use many types of garland to drape across the tree, as well as strands of tinsel. I would also use a large tree topper that can be shiny, like a metal. Then I would also use many kinds of ornaments that could reflect light from other places, also such as a glass or metal substance. If possible, I might also use an artificial tree that is a bold color to create more color and uniqueness to it.""}","""",test,Decorate the world's largest Christmas tree.,generate plans,without using lights
110,110,15,3,"""",87160.30000001192,survey-text,5,462446,80,6108b8e4431de3b4142c21c9,610ac8d31b136d02b868421c,6108706edcba9e0bf1135989,610ac8d31b136d02b868421c,"{""Plan"":""I would fill a bathtub up with water and put the platypus inside to play in and stay cool. I would also toys that are designed to be in the bath to float so that the platypus can play with them in the tub. ""}","""",test,Keep a baby platupyus entertained.,generate plans,without using a ball
111,111,15,3,"""",115130.80000001192,survey-text,6,577580,80,6108b8e4431de3b4142c21c9,610ac8d31b136d02b868421c,6108706edcba9e0bf1135989,610ac8d31b136d02b868421c,"{""Plan"":""Find a decently sized regular saw that is not electric and slowly slice through the trunk of the tree.""}","""",test,Cut down a tree.,generate plans,without using a chainsaw
112,112,15,3,"""",95362.20000004768,survey-text,7,672944,80,6108b8e4431de3b4142c21c9,610ac8d31b136d02b868421c,6108706edcba9e0bf1135989,610ac8d31b136d02b868421c,"{""Plan"":""If there are any trees in the water then I would try to hold onto those to keep me from falling down the waterfall. If there is nothing like that, then I would just jump out of the canoe and try to pull/swim it to the shore before I get close to the waterfall. ""}","""",test,Stop your canoe from falling down the waterfall.,generate plans,without using a paddle
113,113,15,3,"""",96883.89999997616,survey-text,8,769830,80,6108b8e4431de3b4142c21c9,610ac8d31b136d02b868421c,6108706edcba9e0bf1135989,610ac8d31b136d02b868421c,"{""Plan"":""I would try to feed the lion something as I try to clean his teeth. While it may seems counter-intuitive, I could use something that will keep him chewing for a while so that I have enough access to his teeth to keep him preoccupied.""}","""",test,Remove plaque from the teeth of a lion.,generate plans,without using a tranquilizer
114,114,15,3,"""",142624.60000002384,survey-text,9,912456,80,6108b8e4431de3b4142c21c9,610ac8d31b136d02b868421c,6108706edcba9e0bf1135989,610ac8d31b136d02b868421c,"{""Plan"":""I would use recycled cardboard to create a sturdy shelf instead of wood.""}","""",test,Build a bookshelf.,generate plans,without using wood
115,115,15,3,"[{""page_index"":0,""viewing_time"":16738.69999998808},{""page_index"":1,""viewing_time"":17036.80000001192}]",33776.40000003576,instructions,10,946232,80,6108b8e4431de3b4142c21c9,610ac8d31b136d02b868421c,6108706edcba9e0bf1135989,610ac8d31b136d02b868421c,"""","""","""","""","""",""""
116,116,15,3,"""",7119.800000011921,survey-multi-choice,11,953359,80,6108b8e4431de3b4142c21c9,610ac8d31b136d02b868421c,6108706edcba9e0bf1135989,610ac8d31b136d02b868421c,"{""Q0"":""How frequently you think people try to achieve each goal."",""Q1"":""By selecting an option from a multiple choice scale.""}","[0,1]","""","""","""",""""
117,117,15,3,"[{""page_index"":0,""viewing_time"":1112.5999999642372}]",1113.2999999523163,instructions,12,954474,80,6108b8e4431de3b4142c21c9,610ac8d31b136d02b868421c,6108706edcba9e0bf1135989,610ac8d31b136d02b868421c,"""","""","""","""","""",""""
118,118,15,3,"""",23362.900000035763,survey-likert,13,977846,80,6108b8e4431de3b4142c21c9,610ac8d31b136d02b868421c,6108706edcba9e0bf1135989,610ac8d31b136d02b868421c,"{""freq"":2}",[0],"""","Order food in a restaurant, where you don't speak the native language.",rate plans,without using a translator app
119,119,15,3,"""",12591.899999976158,survey-likert,14,990444,80,6108b8e4431de3b4142c21c9,610ac8d31b136d02b868421c,6108706edcba9e0bf1135989,610ac8d31b136d02b868421c,"{""freq"":4}",[0],"""",Decorate the world's largest Christmas tree.,rate plans,without using lights
120,120,15,3,"""",8974.800000011921,survey-likert,15,999427,80,6108b8e4431de3b4142c21c9,610ac8d31b136d02b868421c,6108706edcba9e0bf1135989,610ac8d31b136d02b868421c,"{""freq"":3}",[0],"""",Keep a baby platupyus entertained.,rate plans,without using a ball
121,121,15,3,"""",7445.299999952316,survey-likert,16,1006879,80,6108b8e4431de3b4142c21c9,610ac8d31b136d02b868421c,6108706edcba9e0bf1135989,610ac8d31b136d02b868421c,"{""freq"":2}",[0],"""",Cut down a tree.,rate plans,without using a chainsaw
122,122,15,3,"""",6550.399999976158,survey-likert,17,1013438,80,6108b8e4431de3b4142c21c9,610ac8d31b136d02b868421c,6108706edcba9e0bf1135989,610ac8d31b136d02b868421c,"{""freq"":3}",[0],"""",Stop your canoe from falling down the waterfall.,rate plans,without using a paddle
123,123,15,3,"""",6519.299999952316,survey-likert,18,1019962,80,6108b8e4431de3b4142c21c9,610ac8d31b136d02b868421c,6108706edcba9e0bf1135989,610ac8d31b136d02b868421c,"{""freq"":3}",[0],"""",Remove plaque from the teeth of a lion.,rate plans,without using a tranquilizer
124,124,15,3,"""",9069.900000035763,survey-likert,19,1029039,80,6108b8e4431de3b4142c21c9,610ac8d31b136d02b868421c,6108706edcba9e0bf1135989,610ac8d31b136d02b868421c,"{""freq"":2}",[0],"""",Build a bookshelf.,rate plans,without using wood
125,125,15,3,"""",39819.299999952316,survey-text,20,1068865,80,6108b8e4431de3b4142c21c9,610ac8d31b136d02b868421c,6108706edcba9e0bf1135989,610ac8d31b136d02b868421c,"{""Q0"":""9"",""Q1"":""6"",""Q2"":""10"",""Q3"":""1"",""Q4"":""I enjoyed taking this survey, thank you very much!""}","""","""","""","""",""""
126,126,16,4,"[{""page_index"":0,""viewing_time"":18427},{""page_index"":1,""viewing_time"":18819},{""page_index"":2,""viewing_time"":10935},{""page_index"":3,""viewing_time"":16731},{""page_index"":4,""viewing_time"":5405}]",70317,instructions,0,70321,85,6108b8e4431de3b4142c21c9,610ac8da7ba60b604e718520,6109bf65591bce0e843d5e22,610ac8da7ba60b604e718520,"""","""","""","""","""",""""
127,127,16,4,"""",11661,survey-multi-choice,1,81987,85,6108b8e4431de3b4142c21c9,610ac8da7ba60b604e718520,6109bf65591bce0e843d5e22,610ac8da7ba60b604e718520,"{""Q0"":""Plans to achieve goals."",""Q1"":""By writing text.""}","[0,1]","""","""","""",""""
128,128,16,4,"[{""page_index"":0,""viewing_time"":2006}]",2006,instructions,2,83993,85,6108b8e4431de3b4142c21c9,610ac8da7ba60b604e718520,6109bf65591bce0e843d5e22,610ac8da7ba60b604e718520,"""","""","""","""","""",""""
129,129,16,4,"""",72275,survey-text,3,156273,85,6108b8e4431de3b4142c21c9,610ac8da7ba60b604e718520,6109bf65591bce0e843d5e22,610ac8da7ba60b604e718520,"{""Plan"":""Rinsing the dishes as best as you can and then leaving them all to soak in hot water should be sufficient enough to safely clean them.""}","""",test,Clean the dirty dishes.,generate plans,without using soap
130,130,16,4,"""",97109,survey-text,4,253385,85,6108b8e4431de3b4142c21c9,610ac8da7ba60b604e718520,6109bf65591bce0e843d5e22,610ac8da7ba60b604e718520,"{""Plan"":""Supply sufficient shade to keep from the sun evaporating excess moisture and feed them accordingly (plant food) so they dont lack anything else other than water. ""}","""",test,Keep the plants in your garden alive.,generate plans,without using water
131,131,16,4,"""",125007,survey-text,5,378394,85,6108b8e4431de3b4142c21c9,610ac8da7ba60b604e718520,6109bf65591bce0e843d5e22,610ac8da7ba60b604e718520,"{""Plan"":""Use fix a flat (a spray that goes inside the tire and seals leaks from the inside so you can air it up again). Unless you drove over an axe this should be sufficient for MOST flat tire mishaps.""}","""",test,Fix a flat tire.,generate plans,without using a spare tire
132,132,16,4,"""",145812,survey-text,6,524210,85,6108b8e4431de3b4142c21c9,610ac8da7ba60b604e718520,6109bf65591bce0e843d5e22,610ac8da7ba60b604e718520,"{""Plan"":""Turn a boat (think in simple terms, like a regular bass boat) upside down and attach weights on 5ft chains and drop it into water. An air pocket would be formed and you could stand on the bottom of the pool/pond/etc breathing from said air pocket.""}","""",test,Make a fort underwater.,generate plans,without using an oxygen tank
133,133,16,4,"""",186476,survey-text,7,710689,85,6108b8e4431de3b4142c21c9,610ac8da7ba60b604e718520,6109bf65591bce0e843d5e22,610ac8da7ba60b604e718520,"{""Plan"":""If we have the time to build some sort of landing and transport it to where he would land, there is time to send another skydiver with a parachute to grab him.""}","""",test,Create a safe landing for a falling skydiver.,generate plans,without using a net
134,134,16,4,"""",64189,survey-text,8,774880,85,6108b8e4431de3b4142c21c9,610ac8da7ba60b604e718520,6109bf65591bce0e843d5e22,610ac8da7ba60b604e718520,"{""Plan"":""Stomp on it or hit it with a rag; Then go flip the breaker. ""}","""",test,Put out a fire that started near the wires from your TV.,generate plans,without using a fire extinguisher
135,135,16,4,"""",44232,survey-text,9,819116,85,6108b8e4431de3b4142c21c9,610ac8da7ba60b604e718520,6109bf65591bce0e843d5e22,610ac8da7ba60b604e718520,"{""Plan"":""Use sonar to identify large shark sized fish around the cove.""}","""",test,Find out how many sharks live in a cove off a nearby coast.,generate plans,without using bait
136,136,16,4,"[{""page_index"":0,""viewing_time"":2066},{""page_index"":1,""viewing_time"":10935}]",13001,instructions,10,832119,85,6108b8e4431de3b4142c21c9,610ac8da7ba60b604e718520,6109bf65591bce0e843d5e22,610ac8da7ba60b604e718520,"""","""","""","""","""",""""
137,137,16,4,"""",12120,survey-multi-choice,11,844242,85,6108b8e4431de3b4142c21c9,610ac8da7ba60b604e718520,6109bf65591bce0e843d5e22,610ac8da7ba60b604e718520,"{""Q0"":""How frequently you think people try to achieve each goal."",""Q1"":""By selecting an option from a multiple choice scale.""}","[0,1]","""","""","""",""""
138,138,16,4,"[{""page_index"":0,""viewing_time"":876}]",877,instructions,12,845119,85,6108b8e4431de3b4142c21c9,610ac8da7ba60b604e718520,6109bf65591bce0e843d5e22,610ac8da7ba60b604e718520,"""","""","""","""","""",""""
139,139,16,4,"""",14218,survey-likert,13,859339,85,6108b8e4431de3b4142c21c9,610ac8da7ba60b604e718520,6109bf65591bce0e843d5e22,610ac8da7ba60b604e718520,"{""freq"":2}",[0],"""",Clean the dirty dishes.,rate plans,without using soap
140,140,16,4,"""",7310,survey-likert,14,866650,85,6108b8e4431de3b4142c21c9,610ac8da7ba60b604e718520,6109bf65591bce0e843d5e22,610ac8da7ba60b604e718520,"{""freq"":3}",[0],"""",Keep the plants in your garden alive.,rate plans,without using water
141,141,16,4,"""",15415,survey-likert,15,882067,85,6108b8e4431de3b4142c21c9,610ac8da7ba60b604e718520,6109bf65591bce0e843d5e22,610ac8da7ba60b604e718520,"{""freq"":3}",[0],"""",Fix a flat tire.,rate plans,without using a spare tire
142,142,16,4,"""",6001,survey-likert,16,888070,85,6108b8e4431de3b4142c21c9,610ac8da7ba60b604e718520,6109bf65591bce0e843d5e22,610ac8da7ba60b604e718520,"{""freq"":3}",[0],"""",Make a fort underwater.,rate plans,without using an oxygen tank
143,143,16,4,"""",13277,survey-likert,17,901349,85,6108b8e4431de3b4142c21c9,610ac8da7ba60b604e718520,6109bf65591bce0e843d5e22,610ac8da7ba60b604e718520,"{""freq"":5}",[0],"""",Create a safe landing for a falling skydiver.,rate plans,without using a net
144,144,16,4,"""",7152,survey-likert,18,908501,85,6108b8e4431de3b4142c21c9,610ac8da7ba60b604e718520,6109bf65591bce0e843d5e22,610ac8da7ba60b604e718520,"{""freq"":3}",[0],"""",Put out a fire that started near the wires from your TV.,rate plans,without using a fire extinguisher
145,145,16,4,"""",6378,survey-likert,19,914881,85,6108b8e4431de3b4142c21c9,610ac8da7ba60b604e718520,6109bf65591bce0e843d5e22,610ac8da7ba60b604e718520,"{""freq"":3}",[0],"""",Find out how many sharks live in a cove off a nearby coast.,rate plans,without using bait
146,146,16,4,"""",22734,survey-text,20,937619,85,6108b8e4431de3b4142c21c9,610ac8da7ba60b604e718520,6109bf65591bce0e843d5e22,610ac8da7ba60b604e718520,"{""Q0"":""10"",""Q1"":""5"",""Q2"":""9"",""Q3"":""5"",""Q4"":""}","""","""","""","""",""""
147,147,17,2,"[{""page_index"":0,""viewing_time"":7376.899999856949},{""page_index"":1,""viewing_time"":6434.100000143051},{""page_index"":2,""viewing_time"":4960.799999952316},{""page_index"":3,""viewing_time"":7594.5},{""page_index"":4,""viewing_time"":15659.900000095367}]",42026.799999952316,instructions,0,42036,83,6108b8e4431de3b4142c21c9,610ac8d1f7d02ac5e38e83c5,6109aa0f1b58b2336d8862a9,610ac8d1f7d02ac5e38e83c5,"""","""","""","""","""",""""
148,148,17,2,"""",4530.700000047684,survey-multi-choice,1,46571,83,6108b8e4431de3b4142c21c9,610ac8d1f7d02ac5e38e83c5,6109aa0f1b58b2336d8862a9,610ac8d1f7d02ac5e38e83c5,"{""Q0"":""Plans to achieve goals."",""Q1"":""By writing text.""}","[0,1]","""","""","""",""""
149,149,17,2,"[{""page_index"":0,""viewing_time"":1162.4000000953674}]",1162.7000000476837,instructions,2,47741,83,6108b8e4431de3b4142c21c9,610ac8d1f7d02ac5e38e83c5,6109aa0f1b58b2336d8862a9,610ac8d1f7d02ac5e38e83c5,"""","""","""","""","""",""""
150,150,17,2,"""",54468.09999990463,survey-text,3,102235,83,6108b8e4431de3b4142c21c9,610ac8d1f7d02ac5e38e83c5,6109aa0f1b58b2336d8862a9,610ac8d1f7d02ac5e38e83c5,"{""Plan"":""Soak a towel in cold water and put it around my neck, sit in front of a fan and mist myself with water from a spray bottle. I'll put on a bathing suit and try not to move or break a sweat.""}","""",test,Cool down in a record-breaking heat wave.,generate plans,without using an air conditioner
151,151,17,2,"""",32263,survey-text,4,134500,83,6108b8e4431de3b4142c21c9,610ac8d1f7d02ac5e38e83c5,6109aa0f1b58b2336d8862a9,610ac8d1f7d02ac5e38e83c5,"{""Plan"":""My plan is to find a stick in the woods that's about the size of a baseball bat, then use a softball ball so it won't break the stick.""}","""",test,Play baseball with your friends.,generate plans,without using a bat
152,152,17,2,"""",57757.39999985695,survey-text,5,192263,83,6108b8e4431de3b4142c21c9,610ac8d1f7d02ac5e38e83c5,6109aa0f1b58b2336d8862a9,610ac8d1f7d02ac5e38e83c5,"{""Plan"":""Instead of using a hammer to break the glass, I'll use a screwdriver to pry the plates of glass apart, and then place them on the ground to get the trophy out ""}","""",test,Steal the championship trophy from behind your school's award case.,generate plans,without using a hammer
153,153,17,2,"""",38546.200000047684,survey-text,6,230811,83,6108b8e4431de3b4142c21c9,610ac8d1f7d02ac5e38e83c5,6109aa0f1b58b2336d8862a9,610ac8d1f7d02ac5e38e83c5,"{""Plan"":""My plan is to ask supporters to put sings in their front yards, and to air some television and radio commercials to get the mayor's name out there""}","""",test,Help your local town mayor win re-election.,generate plans,without using billboards
154,154,17,2,"""",25658,survey-text,7,256473,83,6108b8e4431de3b4142c21c9,610ac8d1f7d02ac5e38e83c5,6109aa0f1b58b2336d8862a9,610ac8d1f7d02ac5e38e83c5,"{""Plan"":""My plan is to use canvas and rubber to make a sneaker with laces""}","""",test,Make a pair of new shoes.,generate plans,without using leather
155,155,17,2,"""",34892.09999990463,survey-text,8,291370,83,6108b8e4431de3b4142c21c9,610ac8d1f7d02ac5e38e83c5,6109aa0f1b58b2336d8862a9,610ac8d1f7d02ac5e38e83c5,"{""Plan"":""My plan is to take my dog for a walk in a secluded area so other dogs won't excite him, and I'll stay close to him on my bike in case he runs""}","""",test,Take your dog for a walk.,generate plans,without using a leash
156,156,17,2,"""",24428.599999904633,survey-text,9,315805,83,6108b8e4431de3b4142c21c9,610ac8d1f7d02ac5e38e83c5,6109aa0f1b58b2336d8862a9,610ac8d1f7d02ac5e38e83c5,"{""Plan"":""My plan is to push the sofa up through the attic window, with friends on the roof who can pull it up from there""}","""",test,Get your sofa onto the roof of your house.,generate plans,without using a pulley
157,157,17,2,"[{""page_index"":0,""viewing_time"":1629.8000001907349},{""page_index"":1,""viewing_time"":3217.899999856949}]",4848.300000190735,instructions,10,320654,83,6108b8e4431de3b4142c21c9,610ac8d1f7d02ac5e38e83c5,6109aa0f1b58b2336d8862a9,610ac8d1f7d02ac5e38e83c5,"""","""","""","""","""",""""
158,158,17,2,"""",5521,survey-multi-choice,11,326177,83,6108b8e4431de3b4142c21c9,610ac8d1f7d02ac5e38e83c5,6109aa0f1b58b2336d8862a9,610ac8d1f7d02ac5e38e83c5,"{""Q0"":""How frequently you think people try to achieve each goal."",""Q1"":""By selecting an option from a multiple choice scale.""}","[0,1]","""","""","""",""""
159,159,17,2,"[{""page_index"":0,""viewing_time"":1121.1999998092651}]",1121.5,instructions,12,327302,83,6108b8e4431de3b4142c21c9,610ac8d1f7d02ac5e38e83c5,6109aa0f1b58b2336d8862a9,610ac8d1f7d02ac5e38e83c5,"""","""","""","""","""",""""
160,160,17,2,"""",15152.200000047684,survey-likert,13,342457,83,6108b8e4431de3b4142c21c9,610ac8d1f7d02ac5e38e83c5,6109aa0f1b58b2336d8862a9,610ac8d1f7d02ac5e38e83c5,"{""freq"":3}",[0],"""",Cool down in a record-breaking heat wave.,rate plans,without using an air conditioner
161,161,17,2,"""",6672,survey-likert,14,349138,83,6108b8e4431de3b4142c21c9,610ac8d1f7d02ac5e38e83c5,6109aa0f1b58b2336d8862a9,610ac8d1f7d02ac5e38e83c5,"{""freq"":4}",[0],"""",Play baseball with your friends.,rate plans,without using a bat
162,162,17,2,"""",5790.300000190735,survey-likert,15,354933,83,6108b8e4431de3b4142c21c9,610ac8d1f7d02ac5e38e83c5,6109aa0f1b58b2336d8862a9,610ac8d1f7d02ac5e38e83c5,"{""freq"":5}",[0],"""",Steal the championship trophy from behind your school's award case.,rate plans,without using a hammer
163,163,17,2,"""",5316.600000143051,survey-likert,16,360254,83,6108b8e4431de3b4142c21c9,610ac8d1f7d02ac5e38e83c5,6109aa0f1b58b2336d8862a9,610ac8d1f7d02ac5e38e83c5,"{""freq"":3}",[0],"""",Help your local town mayor win re-election.,rate plans,without using billboards
164,164,17,2,"""",6628.899999856949,survey-likert,17,366891,83,6108b8e4431de3b4142c21c9,610ac8d1f7d02ac5e38e83c5,6109aa0f1b58b2336d8862a9,610ac8d1f7d02ac5e38e83c5,"{""freq"":2}",[0],"""",Make a pair of new shoes.,rate plans,without using leather
165,165,17,2,"""",3674.0999999046326,survey-likert,18,370569,83,6108b8e4431de3b4142c21c9,610ac8d1f7d02ac5e38e83c5,6109aa0f1b58b2336d8862a9,610ac8d1f7d02ac5e38e83c5,"{""freq"":2}",[0],"""",Take your dog for a walk.,rate plans,without using a leash
166,166,17,2,"""",5890.600000143051,survey-likert,19,376466,83,6108b8e4431de3b4142c21c9,610ac8d1f7d02ac5e38e83c5,6109aa0f1b58b2336d8862a9,610ac8d1f7d02ac5e38e83c5,"{""freq"":6}",[0],"""",Get your sofa onto the roof of your house.,rate plans,without using a pulley
167,167,17,2,"""",14105,survey-text,20,390584,83,6108b8e4431de3b4142c21c9,610ac8d1f7d02ac5e38e83c5,6109aa0f1b58b2336d8862a9,610ac8d1f7d02ac5e38e83c5,"{""Q0"":""10"",""Q1"":""1"",""Q2"":""7"",""Q3"":""1"",""Q4"":""}","""","""","""","""",""""
168,168,18,3,"[{""page_index"":0,""viewing_time"":16543.5},{""page_index"":1,""viewing_time"":45499.299999952316},{""page_index"":2,""viewing_time"":16528},{""page_index"":3,""viewing_time"":26644.200000047684},{""page_index"":4,""viewing_time"":4312.200000047684}]",109528.5,instructions,0,109543,71,6108b8e4431de3b4142c21c9,610ac8e15cfdee6b8c07ea75,6100c1f5ec37e9e81d0c2a34,610ac8e15cfdee6b8c07ea75,"""","""","""","""","""",""""
169,169,18,3,"""",10983.700000047684,survey-multi-choice,1,120537,71,6108b8e4431de3b4142c21c9,610ac8e15cfdee6b8c07ea75,6100c1f5ec37e9e81d0c2a34,610ac8e15cfdee6b8c07ea75,"{""Q0"":""Plans to achieve goals."",""Q1"":""By writing text.""}","[0,1]","""","""","""",""""
170,170,18,3,"[{""page_index"":0,""viewing_time"":3685.9000000953674}]",3686.300000190735,instructions,2,124227,71,6108b8e4431de3b4142c21c9,610ac8e15cfdee6b8c07ea75,6100c1f5ec37e9e81d0c2a34,610ac8e15cfdee6b8c07ea75,"""","""","""","""","""",""""
171,171,18,3,"""",225058.59999990463,survey-text,3,349315,71,6108b8e4431de3b4142c21c9,610ac8e15cfdee6b8c07ea75,6100c1f5ec37e9e81d0c2a34,610ac8e15cfdee6b8c07ea75,"{""Plan"":""I would look up the restaurant that I plan on going and read the menu so that I know exactly what I want. I would practice correctly saying the item that I have chosen by either asking a friend, if I have any that speaks that language, or I would look up the words in order to hear how it is said.""}","""",test,"Order food in a restaurant, where you don't speak the native language.",generate plans,without using a translator app
172,172,18,3,"""",423301.5,survey-text,4,772625,71,6108b8e4431de3b4142c21c9,610ac8e15cfdee6b8c07ea75,6100c1f5ec37e9e81d0c2a34,610ac8e15cfdee6b8c07ea75,"{""Plan"":""I would originally try to grab it using my hands, but I wouldn't think that would work. I would either try to steer it towards a rocks to try and put something in front of it so that it somehow stops the canoe from completely going down the waterfall. I would also use a stick while steering it to the rock. ""}","""",test,Stop your canoe from falling down the waterfall.,generate plans,without using a paddle
173,173,18,3,"""",446375.5,survey-text,5,1219004,71,6108b8e4431de3b4142c21c9,610ac8e15cfdee6b8c07ea75,6100c1f5ec37e9e81d0c2a34,610ac8e15cfdee6b8c07ea75,"{""Plan"":""I would originally try to build a bookshelf using metal or plastic sticks to build the foundation of the shelf. Then I would use plastic or fabric slabs (with carboard sewn in between the fabric), to build the shelves in order to hold the books up. I would try to make tunnels on each side of the shelves so that I would be able to connect them to the frame without worry about it slipping off.""}","""",test,Build a bookshelf.,generate plans,without using wood
174,174,18,3,"""",271734.80000019073,survey-text,6,1490750,71,6108b8e4431de3b4142c21c9,610ac8e15cfdee6b8c07ea75,6100c1f5ec37e9e81d0c2a34,610ac8e15cfdee6b8c07ea75,"{""Plan"":""I'm not really sure how to entertain a platypus but I would try to use teddy bears and play with him using those. If that doesn't work then I would just play with him myself without any toys and see how that works.""}","""",test,Keep a baby platupyus entertained.,generate plans,without using a ball
175,175,18,3,"""",661903.1999998093,survey-text,7,2152662,71,6108b8e4431de3b4142c21c9,610ac8e15cfdee6b8c07ea75,6100c1f5ec37e9e81d0c2a34,610ac8e15cfdee6b8c07ea75,"{""Plan"":""I would try to feed the lion dental food to see if that helps with the plaque. If not then if I am close to the lion in a way that it would not try to attack me. Then I would get a long brush (the length of maybe a back scratcher), and try to brush it using that so my arm isn't completely in the lions mouth.""}","""",test,Remove plaque from the teeth of a lion.,generate plans,without using a tranquilizer
176,176,18,3,"""",170906.70000004768,survey-text,8,2323570,71,6108b8e4431de3b4142c21c9,610ac8e15cfdee6b8c07ea75,6100c1f5ec37e9e81d0c2a34,610ac8e15cfdee6b8c07ea75,"{""Plan"":""I would use a hand saw and try to figure out a way to cut the tree down in sections, so that it eliminates the risk of the entire tree falling on me.""}","""",test,Cut down a tree.,generate plans,without using a chainsaw
177,177,18,3,"""",232354.40000009537,survey-text,9,2555933,71,6108b8e4431de3b4142c21c9,610ac8e15cfdee6b8c07ea75,6100c1f5ec37e9e81d0c2a34,610ac8e15cfdee6b8c07ea75,"{""Plan"":""I would use reflective ornaments, maybe stained glass ornaments, so that when the light from the sun hits the tree the colors are reflected off the tree. Or I would try to have a projector set up at different angles so that it shines on the tree. I would maybe use plain colored ornaments and project sparkles or something to give them extra pizazz at night.""}","""",test,Decorate the world's largest Christmas tree.,generate plans,without using lights
178,178,18,3,"[{""page_index"":0,""viewing_time"":290101},{""page_index"":1,""viewing_time"":11348}]",301450.30000019073,instructions,10,2857386,71,6108b8e4431de3b4142c21c9,610ac8e15cfdee6b8c07ea75,6100c1f5ec37e9e81d0c2a34,610ac8e15cfdee6b8c07ea75,"""","""","""","""","""",""""
179,179,18,3,"""",10925.899999856949,survey-multi-choice,11,2868318,71,6108b8e4431de3b4142c21c9,610ac8e15cfdee6b8c07ea75,6100c1f5ec37e9e81d0c2a34,610ac8e15cfdee6b8c07ea75,"{""Q0"":""How frequently you think people try to achieve each goal."",""Q1"":""By selecting an option from a multiple choice scale.""}","[0,1]","""","""","""",""""
180,180,18,3,"[{""page_index"":0,""viewing_time"":2003.5999999046326}]",2004.2000000476837,instructions,12,2870325,71,6108b8e4431de3b4142c21c9,610ac8e15cfdee6b8c07ea75,6100c1f5ec37e9e81d0c2a34,610ac8e15cfdee6b8c07ea75,"""","""","""","""","""",""""
181,181,18,3,"""",22443,survey-likert,13,2892773,71,6108b8e4431de3b4142c21c9,610ac8e15cfdee6b8c07ea75,6100c1f5ec37e9e81d0c2a34,610ac8e15cfdee6b8c07ea75,"{""freq"":0}",[0],"""","Order food in a restaurant, where you don't speak the native language.",rate plans,without using a translator app
182,182,18,3,"""",13785.599999904633,survey-likert,14,2906567,71,6108b8e4431de3b4142c21c9,610ac8e15cfdee6b8c07ea75,6100c1f5ec37e9e81d0c2a34,610ac8e15cfdee6b8c07ea75,"{""freq"":2}",[0],"""",Stop your canoe from falling down the waterfall.,rate plans,without using a paddle
183,183,18,3,"""",11960.599999904633,survey-likert,15,2918534,71,6108b8e4431de3b4142c21c9,610ac8e15cfdee6b8c07ea75,6100c1f5ec37e9e81d0c2a34,610ac8e15cfdee6b8c07ea75,"{""freq"":4}",[0],"""",Build a bookshelf.,rate plans,without using wood
184,184,18,3,"""",8471.600000143051,survey-likert,16,2927011,71,6108b8e4431de3b4142c21c9,610ac8e15cfdee6b8c07ea75,6100c1f5ec37e9e81d0c2a34,610ac8e15cfdee6b8c07ea75,"{""freq"":6}",[0],"""",Keep a baby platupyus entertained.,rate plans,without using a ball
185,185,18,3,"""",9062.099999904633,survey-likert,17,2936080,71,6108b8e4431de3b4142c21c9,610ac8e15cfdee6b8c07ea75,6100c1f5ec37e9e81d0c2a34,610ac8e15cfdee6b8c07ea75,"{""freq"":4}",[0],"""",Remove plaque from the teeth of a lion.,rate plans,without using a tranquilizer
186,186,18,3,"""",5689.200000047684,survey-likert,18,2941774,71,6108b8e4431de3b4142c21c9,610ac8e15cfdee6b8c07ea75,6100c1f5ec37e9e81d0c2a34,610ac8e15cfdee6b8c07ea75,"{""freq"":4}",[0],"""",Cut down a tree.,rate plans,without using a chainsaw
187,187,18,3,"""",6033.700000047684,survey-likert,19,2947813,71,6108b8e4431de3b4142c21c9,610ac8e15cfdee6b8c07ea75,6100c1f5ec37e9e81d0c2a34,610ac8e15cfdee6b8c07ea75,"{""freq"":4}",[0],"""",Decorate the world's largest Christmas tree.,rate plans,without using lights
188,188,18,3,"""",65957.90000009537,survey-text,20,3013774,71,6108b8e4431de3b4142c21c9,610ac8e15cfdee6b8c07ea75,6100c1f5ec37e9e81d0c2a34,610ac8e15cfdee6b8c07ea75,"{""Q0"":""10"",""Q1"":""5"",""Q2"":""5"",""Q3"":""2"",""Q4"":""The questions were very interesting and it made you really think about how would go about doing it.""}","""","""","""","""",""""
189,189,2,1,"[{""page_index"":0,""viewing_time"":5598.800000071526},{""page_index"":1,""viewing_time"":9708.899999976158},{""page_index"":2,""viewing_time"":4329.799999952316},{""page_index"":1,""viewing_time"":20941.200000047684},{""page_index"":2,""viewing_time"":5880.5},{""page_index"":3,""viewing_time"":7516.600000023842},{""page_index"":4,""viewing_time"":1596.0999999046326}]",55574,instructions,0,55589,77,6108b8e4431de3b4142c21c9,610ac88d7a05b6ddc7ad900b,6107f4e813f7d544102f7a31,610ac88d7a05b6ddc7ad900b,"""","""","""","""","""",""""
190,190,2,1,"""",9760.700000047684,survey-multi-choice,1,65363,77,6108b8e4431de3b4142c21c9,610ac88d7a05b6ddc7ad900b,6107f4e813f7d544102f7a31,610ac88d7a05b6ddc7ad900b,"{""Q0"":""Plans to achieve goals."",""Q1"":""By writing text.""}","[0,1]","""","""","""",""""
191,191,2,1,"[{""page_index"":0,""viewing_time"":1489}]",1489.6000000238419,instructions,2,66858,77,6108b8e4431de3b4142c21c9,610ac88d7a05b6ddc7ad900b,6107f4e813f7d544102f7a31,610ac88d7a05b6ddc7ad900b,"""","""","""","""","""",""""
192,192,2,1,"""",123698.5,survey-text,3,190603,77,6108b8e4431de3b4142c21c9,610ac88d7a05b6ddc7ad900b,6107f4e813f7d544102f7a31,610ac88d7a05b6ddc7ad900b,"{""Plan"":""1. Survey any tools available to you. \n2. If there is a hammer or similarly heavy item that can be easily swung, pick it up.\n3. Use the item to swing at the door knob of the closet, attempting to break it off AND make noise.\n4. Simultaneously, yell to indicate that you need help.\n5. Continue both of these tasks until the lock breaks and/or someone comes to your assistance. ""}","""",test,Escape from inside a locked custodial closet.,generate plans,without using a phone
193,193,2,1,"""",188931.39999997616,survey-text,4,379549,77,6108b8e4431de3b4142c21c9,610ac88d7a05b6ddc7ad900b,6107f4e813f7d544102f7a31,610ac88d7a05b6ddc7ad900b,"{""Plan"":""1. Type out a short letter to any surrounding neighbors you know hunt, asking them to refrain from shooting deers this season.\n2. Put it in their mailbox or on their doorstep.\n3. Contact your local wildlife office and ask how you may aid their efforts to protect the deer in your area.""}","""",test,Protect the deer in your nearby woods during hunting season.,generate plans,without using signs
194,194,2,1,"""",125440.5,survey-text,5,505006,77,6108b8e4431de3b4142c21c9,610ac88d7a05b6ddc7ad900b,6107f4e813f7d544102f7a31,610ac88d7a05b6ddc7ad900b,"{""Plan"":""1. Purchase several spray paint bottles at your nearest craft store in the shade of paint you would like the fence to be. \n2. Spray the fence with the bottle thoroughly, using a new bottle every time you run out.""}","""",test,Paint a fence.,generate plans,without using a paint brush
195,195,2,1,"""",238127.5,survey-text,6,743145,77,6108b8e4431de3b4142c21c9,610ac88d7a05b6ddc7ad900b,6107f4e813f7d544102f7a31,610ac88d7a05b6ddc7ad900b,"{""Plan"":""1. Stay calm.\n2. If you have a phone on your or within grabbing distance, use it to call for help (presumably emergency services).\n3. If no phone is available, use your core strength and explosive movement to yank your feet from the quicksand. Assuming you've worked quickly and stayed calm, not much of your body should be submerged at this point.\n4. If you are not strong enough to get out, toss your shirt or another large item nearby to signal someone is under the quicksand if someone else comes by.\n5. If completely submerged, create an air pocket to prolong your chances of escaping.""}","""",test,Escape quicksand.,generate plans,without using a branch
196,196,2,1,"""",179632.20000004768,survey-text,7,922798,77,6108b8e4431de3b4142c21c9,610ac88d7a05b6ddc7ad900b,6107f4e813f7d544102f7a31,610ac88d7a05b6ddc7ad900b,"{""Plan"":""1. Mix flour, sugar, oil, milk, vanilla, salt, and chocolate chips in a large mug until no lumps remain. \n2. Sprinkle additional chocolate chips on top of the batter, if desired.\n3. Place the mug in the center of the microwave and microwave on for about one minute, depending on your microwave.\n4. Once done, remove from the microwave and let rest for one minute.\n5. Top with whipped cream or powdered sugar and enjoy your mug cake!""}","""",test,Bake a cake.,generate plans,without using an oven
197,197,2,1,"""",123129.29999995232,survey-text,8,1045942,77,6108b8e4431de3b4142c21c9,610ac88d7a05b6ddc7ad900b,6107f4e813f7d544102f7a31,610ac88d7a05b6ddc7ad900b,"{""Plan"":""1. Obtain a 5-foot ladder and a thick, soft mat.\n2. Place the mat behind the man and the ladder close to the front of the man. \n3. Climb to the top of the ladder, jump over the man's head, avoid hitting him, and aim for the soft mat behind him.\n4. Land on your back if possible.""}","""",test,Jump over a six foot tall man.,generate plans,without using a trampoline
198,198,2,1,"""",106583.79999995232,survey-text,9,1152546,77,6108b8e4431de3b4142c21c9,610ac88d7a05b6ddc7ad900b,6107f4e813f7d544102f7a31,610ac88d7a05b6ddc7ad900b,"{""Plan"":""1. Gather a fleet of small drones and a large piece of lightweight wood.\n2. Attach the wood to the drones and decorate the wood in lightweight decorations.\n3. Control the fleet of drones as one to fly down the street in the parade, carrying the float with them.""}","""",test,Build a float to dazzle the crowd at the Macy's Day Parade.,generate plans,without using a trailer
199,199,2,1,"[{""page_index"":0,""viewing_time"":1701.5},{""page_index"":1,""viewing_time"":8313.899999976158}]",10017.300000071526,instructions,10,1162567,77,6108b8e4431de3b4142c21c9,610ac88d7a05b6ddc7ad900b,6107f4e813f7d544102f7a31,610ac88d7a05b6ddc7ad900b,"""","""","""","""","""",""""
200,200,2,1,"""",10363.200000047684,survey-multi-choice,11,1172937,77,6108b8e4431de3b4142c21c9,610ac88d7a05b6ddc7ad900b,6107f4e813f7d544102f7a31,610ac88d7a05b6ddc7ad900b,"{""Q0"":""How frequently you think people try to achieve each goal."",""Q1"":""By selecting an option from a multiple choice scale.""}","[0,1]","""","""","""",""""
201,201,2,1,"[{""page_index"":0,""viewing_time"":1154.2000000476837}]",1154.7999999523163,instructions,12,1174096,77,6108b8e4431de3b4142c21c9,610ac88d7a05b6ddc7ad900b,6107f4e813f7d544102f7a31,610ac88d7a05b6ddc7ad900b,"""","""","""","""","""",""""
202,202,2,1,"""",12020.600000023842,survey-likert,13,1186125,77,6108b8e4431de3b4142c21c9,610ac88d7a05b6ddc7ad900b,6107f4e813f7d544102f7a31,610ac88d7a05b6ddc7ad900b,"{""freq"":4}",[0],"""",Escape from inside a locked custodial closet.,rate plans,without using a phone
203,203,2,1,"""",6730.100000023842,survey-likert,14,1192862,77,6108b8e4431de3b4142c21c9,610ac88d7a05b6ddc7ad900b,6107f4e813f7d544102f7a31,610ac88d7a05b6ddc7ad900b,"{""freq"":5}",[0],"""",Protect the deer in your nearby woods during hunting season.,rate plans,without using signs
204,204,2,1,"""",15837.900000095367,survey-likert,15,1208710,77,6108b8e4431de3b4142c21c9,610ac88d7a05b6ddc7ad900b,6107f4e813f7d544102f7a31,610ac88d7a05b6ddc7ad900b,"{""freq"":3}",[0],"""",Paint a fence.,rate plans,without using a paint brush
205,205,2,1,"""",6634.5,survey-likert,16,1215352,77,6108b8e4431de3b4142c21c9,610ac88d7a05b6ddc7ad900b,6107f4e813f7d544102f7a31,610ac88d7a05b6ddc7ad900b,"{""freq"":5}",[0],"""",Escape quicksand.,rate plans,without using a branch
206,206,2,1,"""",7388.600000023842,survey-likert,17,1222751,77,6108b8e4431de3b4142c21c9,610ac88d7a05b6ddc7ad900b,6107f4e813f7d544102f7a31,610ac88d7a05b6ddc7ad900b,"{""freq"":2}",[0],"""",Bake a cake.,rate plans,without using an oven
207,207,2,1,"""",7673.300000071526,survey-likert,18,1230430,77,6108b8e4431de3b4142c21c9,610ac88d7a05b6ddc7ad900b,6107f4e813f7d544102f7a31,610ac88d7a05b6ddc7ad900b,"{""freq"":5}",[0],"""",Jump over a six foot tall man.,rate plans,without using a trampoline
208,208,2,1,"""",3350.9000000953674,survey-likert,19,1233791,77,6108b8e4431de3b4142c21c9,610ac88d7a05b6ddc7ad900b,6107f4e813f7d544102f7a31,610ac88d7a05b6ddc7ad900b,"{""freq"":6}",[0],"""",Build a float to dazzle the crowd at the Macy's Day Parade.,rate plans,without using a trailer
209,209,2,1,"""",18378.700000047684,survey-text,20,1252180,77,6108b8e4431de3b4142c21c9,610ac88d7a05b6ddc7ad900b,6107f4e813f7d544102f7a31,610ac88d7a05b6ddc7ad900b,"{""Q0"":""9"",""Q1"":""7"",""Q2"":""6"",""Q3"":""1"",""Q4"":""}","""","""","""","""",""""
210,210,22,3,"[{""page_index"":0,""viewing_time"":13977.199999809265},{""page_index"":1,""viewing_time"":22935.10000038147},{""page_index"":2,""viewing_time"":11985.199999809265},{""page_index"":3,""viewing_time"":15304.800000190735},{""page_index"":4,""viewing_time"":4237.599999427795}]",68441.5,instructions,0,68444,89,6108b8e4431de3b4142c21c9,610acc9307e1662df4cdd100,610aafee3c6c1a853812884b,610acc9307e1662df4cdd100,"""","""","""","""","""",""""
211,211,22,3,"""",15684.10000038147,survey-multi-choice,1,84133,89,6108b8e4431de3b4142c21c9,610acc9307e1662df4cdd100,610aafee3c6c1a853812884b,610acc9307e1662df4cdd100,"{""Q0"":""Plans to achieve goals."",""Q1"":""By writing text.""}","[0,1]","""","""","""",""""
212,212,22,3,"[{""page_index"":0,""viewing_time"":2050.5999994277954}]",2050.8999996185303,instructions,2,86187,89,6108b8e4431de3b4142c21c9,610acc9307e1662df4cdd100,610aafee3c6c1a853812884b,610acc9307e1662df4cdd100,"""","""","""","""","""",""""
213,213,22,3,"""",868383,survey-text,3,954587,89,6108b8e4431de3b4142c21c9,610acc9307e1662df4cdd100,610aafee3c6c1a853812884b,610acc9307e1662df4cdd100,"{""Plan"":""your first plan of action should be to try and gather as many decorations from anybody who is willing to help you. Start out by making a social media post and ask your friends to share. Your post should include the measurements of the tree, and if possible a photo of the tree. This will help people be able to visualize just how big of a task this is. Explain that you wont be using lights and if there is logical reasoning's why make sure to include them. Reach out to local news stations and see if they can help share your story. A lot of times news stations will include a cropped screenshot of the social media post in question. This will also help spread your post. Once you have people aware that you will be decorating a tree this big you can start accepting decoration donations. You can also have school teachers let their students make decorations by either coloring a paper cut out in the shape of an ornament or they can get crafty and use other supplies. Once you have all the decorations you need to make a plan of action. The easiest and safest method to get high enough to decorate the top of the tree. I would recommend renting a boom lift, which looks like a small crane and has a platform and controls at the end of the arm. This will allow you to get up off the ground and high enough to decorate the top of the tree. This will also be the safest option because it was designed to help workers safely get in hard to reach areas high above the ground. Once you have the machinery figured out take a look at all your decorations. If you are wondering if you have enough ration them. you can always go back and add more in. as long as you dont have large gap areas it will still look good. if you are allowed to have people help then use them! have helpers work on the bottom while you focus on the top. Regardless if you have help or not I recommend working from the top down. it will be easier to decorate the bottom because you wont need the boom lift. save the easiest stuff for last, you will be tired by then. the next step is to execute your plan! after you execute, you are done.""}","""",test,Decorate the world's largest Christmas tree.,generate plans,without using lights
214,214,22,3,"""",363055.30000019073,survey-text,4,1317648,89,6108b8e4431de3b4142c21c9,610acc9307e1662df4cdd100,610aafee3c6c1a853812884b,610acc9307e1662df4cdd100,"{""Plan"":""A mother platypus usually lays 2 eggs at a time. The best way to keep a baby platypus entertained would be to use their litter mate. young animals use play fighting as a way to have fun and practice for real fights. This should be the preferred enjoyment for a baby platypus. if this is not the case then try using a stuffed animal resembling a platypus. Please keep in mind that a platypus is not a friendly creature. A tv show that was on while I was a kid gave a lot of people a false impression of these animals. They do not wear fedoras and do not want to snuggle with you. your best option is minimal contact and to use a toy of any kind. as long as it allows you to keep your fingers at a safe distance. ""}","""",test,Keep a baby platupyus entertained.,generate plans,without using a ball
215,215,22,3,"""",135117.39999961853,survey-text,5,1452772,89,6108b8e4431de3b4142c21c9,610acc9307e1662df4cdd100,610aafee3c6c1a853812884b,610acc9307e1662df4cdd100,"{""Plan"":""Lions are a big cat, yes they can be very mean, but they are still a cat. So give them a treat! there are several dental treats for animals, so I am sure they can make a larger scale one for a lion. You can also look into things for a lion to chew on. Some toys are designed to rub against the teeth during chewing to help scrape off some plaque. I don't brush my dogs teeth but I do use treats and toys that help keep his teeth happy and healthy. ""}","""",test,Remove plaque from the teeth of a lion.,generate plans,without using a tranquilizer
216,216,22,3,"""",91972.89999961853,survey-text,6,1544750,89,6108b8e4431de3b4142c21c9,610acc9307e1662df4cdd100,610aafee3c6c1a853812884b,610acc9307e1662df4cdd100,"{""Plan"":""This wont require much brain power but will require physical power. humans were able to cut down trees for centuries before the chainsaw was invented. Use an axe! you can also use the wedge method to save energy while cutting the tree and ensure the tree falls in a safe manner.""}","""",test,Cut down a tree.,generate plans,without using a chainsaw
217,217,22,3,"""",669646.2999992371,survey-text,7,2214394,89,6108b8e4431de3b4142c21c9,610acc9307e1662df4cdd100,610aafee3c6c1a853812884b,610acc9307e1662df4cdd100,"{""Plan"":""Try to find a branch of sorts either on a tree above you or in the water. Since the water is all moving in a general direction debris will also be floating that direction. debris can also get hung up on rocks or entire trees under the water. if you see any areas where there is a collection of debris try to get your canoe in that direction. It would be preferred to get hung up with the debris until you can seek help. if you are able to stand in the water, see if the current would be too strong for you and your canoe to be walked to the shore. it may push you a little but if you time it right you should still be able to make it. if all possible options fail, you will be losing your canoe. its best not to lose your life with it. try to get to shore without the canoe and hope you can retrieve your canoe from the bottom of the waterfall in one piece.""}","""",test,Stop your canoe from falling down the waterfall.,generate plans,without using a paddle
218,218,22,3,"""",168654,survey-text,8,2383061,89,6108b8e4431de3b4142c21c9,610acc9307e1662df4cdd100,610aafee3c6c1a853812884b,610acc9307e1662df4cdd100,"{""Plan"":""Every restaurant has a menu, this is how you are able to know what they serve. Every waiter has probably encountered someone that does not speak their language, so they probably have seen this before. Try to communicate to them that you dont speak their language, so they dont think you are rude and simply point to what you would like. they will understand and will still be able to bring you the food you decided on. ""}","""",test,"Order food in a restaurant, where you don't speak the native language.",generate plans,without using a translator app
219,219,22,3,"""",174335.10000038147,survey-text,9,2557400,89,6108b8e4431de3b4142c21c9,610acc9307e1662df4cdd100,610aafee3c6c1a853812884b,610acc9307e1662df4cdd100,"{""Plan"":""there are so many different materials to build book shelves out of, you dont need to only restrict yourself to wood! Metal bookshelves can look just as good and help bring something new and interesting to the room! you can use metal PVC piping to make a frame and use a reinforced plastic or another piece of sanded, finished metal to bolt across the metal piping. this will give you a cool industrial style bookshelf to b=tie the room together!""}","""",test,Build a bookshelf.,generate plans,without using wood
220,220,22,3,"[{""page_index"":0,""viewing_time"":3974.199999809265},{""page_index"":1,""viewing_time"":9695.800000190735}]",13671.199999809265,instructions,10,2571073,89,6108b8e4431de3b4142c21c9,610acc9307e1662df4cdd100,610aafee3c6c1a853812884b,610acc9307e1662df4cdd100,"""","""","""","""","""",""""
221,221,22,3,"""",14677.60000038147,survey-multi-choice,11,2585754,89,6108b8e4431de3b4142c21c9,610acc9307e1662df4cdd100,610aafee3c6c1a853812884b,610acc9307e1662df4cdd100,"{""Q0"":""How frequently you think people try to achieve each goal."",""Q1"":""By selecting an option from a multiple choice scale.""}","[0,1]","""","""","""",""""
222,222,22,3,"[{""page_index"":0,""viewing_time"":2094.5}]",2095.300000190735,instructions,12,2587851,89,6108b8e4431de3b4142c21c9,610acc9307e1662df4cdd100,610aafee3c6c1a853812884b,610acc9307e1662df4cdd100,"""","""","""","""","""",""""
223,223,22,3,"""",11597.89999961853,survey-likert,13,2599448,89,6108b8e4431de3b4142c21c9,610acc9307e1662df4cdd100,610aafee3c6c1a853812884b,610acc9307e1662df4cdd100,"{""freq"":5}",[0],"""",Decorate the world's largest Christmas tree.,rate plans,without using lights
224,224,22,3,"""",8242.800000190735,survey-likert,14,2607695,89,6108b8e4431de3b4142c21c9,610acc9307e1662df4cdd100,610aafee3c6c1a853812884b,610acc9307e1662df4cdd100,"{""freq"":3}",[0],"""",Keep a baby platupyus entertained.,rate plans,without using a ball
225,225,22,3,"""",21818.60000038147,survey-likert,15,2629519,89,6108b8e4431de3b4142c21c9,610acc9307e1662df4cdd100,610aafee3c6c1a853812884b,610acc9307e1662df4cdd100,"{""freq"":3}",[0],"""",Remove plaque from the teeth of a lion.,rate plans,without using a tranquilizer
226,226,22,3,"""",12246.10000038147,survey-likert,16,2641768,89,6108b8e4431de3b4142c21c9,610acc9307e1662df4cdd100,610aafee3c6c1a853812884b,610acc9307e1662df4cdd100,"{""freq"":2}",[0],"""",Cut down a tree.,rate plans,without using a chainsaw
227,227,22,3,"""",9332.400000572205,survey-likert,17,2651105,89,6108b8e4431de3b4142c21c9,610acc9307e1662df4cdd100,610aafee3c6c1a853812884b,610acc9307e1662df4cdd100,"{""freq"":2}",[0],"""",Stop your canoe from falling down the waterfall.,rate plans,without using a paddle
228,228,22,3,"""",7989.200000762939,survey-likert,18,2659103,89,6108b8e4431de3b4142c21c9,610acc9307e1662df4cdd100,610aafee3c6c1a853812884b,610acc9307e1662df4cdd100,"{""freq"":1}",[0],"""","Order food in a restaurant, where you don't speak the native language.",rate plans,without using a translator app
229,229,22,3,"""",5420.60000038147,survey-likert,19,2664529,89,6108b8e4431de3b4142c21c9,610acc9307e1662df4cdd100,610aafee3c6c1a853812884b,610acc9307e1662df4cdd100,"{""freq"":1}",[0],"""",Build a bookshelf.,rate plans,without using wood
230,230,22,3,"""",81857.4000005722,survey-text,20,2746387,89,6108b8e4431de3b4142c21c9,610acc9307e1662df4cdd100,610aafee3c6c1a853812884b,610acc9307e1662df4cdd100,"{""Q0"":""10"",""Q1"":""6"",""Q2"":""10"",""Q3"":""3"",""Q4"":""please do not attempt to play with a baby platypus. Mothers can be very mean, and they sweat milk. That is just weird""}","""","""","""","""",""""
231,231,23,1,"[{""page_index"":0,""viewing_time"":21514},{""page_index"":1,""viewing_time"":25272},{""page_index"":2,""viewing_time"":127976},{""page_index"":3,""viewing_time"":11183},{""page_index"":4,""viewing_time"":14105}]",200050,instructions,0,200056,53,6108b8e4431de3b4142c21c9,6113ddbb5f3c224d7b7fdec0,5d5f07cdca10e90016bc0103,6113ddbb5f3c224d7b7fdec0,"""","""","""","""","""",""""
232,232,23,1,"""",8337,survey-multi-choice,1,208400,53,6108b8e4431de3b4142c21c9,6113ddbb5f3c224d7b7fdec0,5d5f07cdca10e90016bc0103,6113ddbb5f3c224d7b7fdec0,"{""Q0"":""Plans to achieve goals."",""Q1"":""By writing text.""}","[0,1]","""","""","""",""""
233,233,23,1,"[{""page_index"":0,""viewing_time"":2085}]",2085,instructions,2,210486,53,6108b8e4431de3b4142c21c9,6113ddbb5f3c224d7b7fdec0,5d5f07cdca10e90016bc0103,6113ddbb5f3c224d7b7fdec0,"""","""","""","""","""",""""
234,234,23,1,"""",161823,survey-text,3,372320,53,6108b8e4431de3b4142c21c9,6113ddbb5f3c224d7b7fdec0,5d5f07cdca10e90016bc0103,6113ddbb5f3c224d7b7fdec0,"{""Plan"":""Well the simplest solution here is to just ban hunting. So I will persuade my local/state representative to outlaw hunting going forward. ""}","""",test,Protect the deer in your nearby woods during hunting season.,generate plans,without using signs
235,235,23,1,"""",322418,survey-text,4,694744,53,6108b8e4431de3b4142c21c9,6113ddbb5f3c224d7b7fdec0,5d5f07cdca10e90016bc0103,6113ddbb5f3c224d7b7fdec0,"{""Plan"":""Does a microwave count? I'm not sure if we're talking only traditional ovens, because a microwave is indeed short for microwave oven. If it's allowed, I'd follow the same basic steps as a traditional cake and research the proper settings and time for a microwave. If not, we'll just go with a stovetop cake. ""}","""",test,Bake a cake.,generate plans,without using an oven
236,236,23,1,"""",170671,survey-text,5,865430,53,6108b8e4431de3b4142c21c9,6113ddbb5f3c224d7b7fdec0,5d5f07cdca10e90016bc0103,6113ddbb5f3c224d7b7fdec0,"{""Plan"":""I'd just go to a store like Home Depot or Lowe's and buy (or rent, if possible) a paint sprayer. You can buy them for anywhere around $50-100. Quite simple to use, too. ""}","""",test,Paint a fence.,generate plans,without using a paint brush
237,237,23,1,"""",34464,survey-text,6,899905,53,6108b8e4431de3b4142c21c9,6113ddbb5f3c224d7b7fdec0,5d5f07cdca10e90016bc0103,6113ddbb5f3c224d7b7fdec0,"{""Plan"":""I would have this tall man stand in any sort of hole or crevice and gently hop over his head.""}","""",test,Jump over a six foot tall man.,generate plans,without using a trampoline
238,238,23,1,"""",169129,survey-text,7,1069047,53,6108b8e4431de3b4142c21c9,6113ddbb5f3c224d7b7fdec0,5d5f07cdca10e90016bc0103,6113ddbb5f3c224d7b7fdec0,"{""Plan"":""If I am unable to get at the lock with a credit card or paper clip, I'll just bang on the door until someone hears. ""}","""",test,Escape from inside a locked custodial closet.,generate plans,without using a phone
239,239,23,1,"""",166953,survey-text,8,1236007,53,6108b8e4431de3b4142c21c9,6113ddbb5f3c224d7b7fdec0,5d5f07cdca10e90016bc0103,6113ddbb5f3c224d7b7fdec0,"{""Plan"":""So from my childhood I remember never to struggle. The ideal plan is to wait for someone to come and help. If possible, I would lay parallel to the sand on top, so that my bodyweight is evenly distributed and allows me to float. from there, I just shout until someone comes to my rescue.""}","""",test,Escape quicksand.,generate plans,without using a branch
240,240,23,1,"""",236796,survey-text,9,1472815,53,6108b8e4431de3b4142c21c9,6113ddbb5f3c224d7b7fdec0,5d5f07cdca10e90016bc0103,6113ddbb5f3c224d7b7fdec0,"{""Plan"":""So if no trailer, I'm just building this out of the back of a pickup truck. you need wheels for this to move, so why not just do it right from a vehicle? you have your base - the truck. next you need your platform. any sort of sturdy surface will do - it just has to be fastened securely to the truck bed. from there, the sky is the limit.""}","""",test,Build a float to dazzle the crowd at the Macy's Day Parade.,generate plans,without using a trailer
241,241,23,1,"[{""page_index"":0,""viewing_time"":2860},{""page_index"":1,""viewing_time"":9608}]",12468,instructions,10,1485286,53,6108b8e4431de3b4142c21c9,6113ddbb5f3c224d7b7fdec0,5d5f07cdca10e90016bc0103,6113ddbb5f3c224d7b7fdec0,"""","""","""","""","""",""""
242,242,23,1,"""",14186,survey-multi-choice,11,1499479,53,6108b8e4431de3b4142c21c9,6113ddbb5f3c224d7b7fdec0,5d5f07cdca10e90016bc0103,6113ddbb5f3c224d7b7fdec0,"{""Q0"":""How frequently you think people try to achieve each goal."",""Q1"":""By moving sliders.""}","[0,1]","""","""","""",""""
243,243,23,1,"[{""page_index"":0,""viewing_time"":3084},{""page_index"":1,""viewing_time"":18776}]",21860,instructions,12,1521341,53,6108b8e4431de3b4142c21c9,6113ddbb5f3c224d7b7fdec0,5d5f07cdca10e90016bc0103,6113ddbb5f3c224d7b7fdec0,"""","""","""","""","""",""""
244,244,23,1,"""",5739,survey-multi-choice,13,1527086,53,6108b8e4431de3b4142c21c9,6113ddbb5f3c224d7b7fdec0,5d5f07cdca10e90016bc0103,6113ddbb5f3c224d7b7fdec0,"{""Q0"":""How frequently you think people try to achieve each goal."",""Q1"":""By selecting an option from a multiple choice scale.""}","[0,1]","""","""","""",""""
245,245,23,1,"[{""page_index"":0,""viewing_time"":3206}]",3206,instructions,14,1530293,53,6108b8e4431de3b4142c21c9,6113ddbb5f3c224d7b7fdec0,5d5f07cdca10e90016bc0103,6113ddbb5f3c224d7b7fdec0,"""","""","""","""","""",""""
246,246,23,1,"""",8860,survey-likert,15,1539159,53,6108b8e4431de3b4142c21c9,6113ddbb5f3c224d7b7fdec0,5d5f07cdca10e90016bc0103,6113ddbb5f3c224d7b7fdec0,"{""freq"":5}",[0],"""",Protect the deer in your nearby woods during hunting season.,rate plans,without using signs
247,247,23,1,"""",8942,survey-likert,16,1548103,53,6108b8e4431de3b4142c21c9,6113ddbb5f3c224d7b7fdec0,5d5f07cdca10e90016bc0103,6113ddbb5f3c224d7b7fdec0,"{""freq"":3}",[0],"""",Bake a cake.,rate plans,without using an oven
248,248,23,1,"""",13684,survey-likert,17,1561790,53,6108b8e4431de3b4142c21c9,6113ddbb5f3c224d7b7fdec0,5d5f07cdca10e90016bc0103,6113ddbb5f3c224d7b7fdec0,"{""freq"":3}",[0],"""",Paint a fence.,rate plans,without using a paint brush
249,249,23,1,"""",7787,survey-likert,18,1569583,53,6108b8e4431de3b4142c21c9,6113ddbb5f3c224d7b7fdec0,5d5f07cdca10e90016bc0103,6113ddbb5f3c224d7b7fdec0,"{""freq"":4}",[0],"""",Jump over a six foot tall man.,rate plans,without using a trampoline
250,250,23,1,"""",6794,survey-likert,19,1576382,53,6108b8e4431de3b4142c21c9,6113ddbb5f3c224d7b7fdec0,5d5f07cdca10e90016bc0103,6113ddbb5f3c224d7b7fdec0,"{""freq"":5}",[0],"""",Escape from inside a locked custodial closet.,rate plans,without using a phone
251,251,23,1,"""",5631,survey-likert,20,1582014,53,6108b8e4431de3b4142c21c9,6113ddbb5f3c224d7b7fdec0,5d5f07cdca10e90016bc0103,6113ddbb5f3c224d7b7fdec0,"{""freq"":5}",[0],"""",Escape quicksand.,rate plans,without using a branch
252,252,23,1,"""",5835,survey-likert,21,1587854,53,6108b8e4431de3b4142c21c9,6113ddbb5f3c224d7b7fdec0,5d5f07cdca10e90016bc0103,6113ddbb5f3c224d7b7fdec0,"{""freq"":4}",[0],"""",Build a float to dazzle the crowd at the Macy's Day Parade.,rate plans,without using a trailer
253,253,23,1,"""",19811,survey-text,22,1607670,53,6108b8e4431de3b4142c21c9,6113ddbb5f3c224d7b7fdec0,5d5f07cdca10e90016bc0103,6113ddbb5f3c224d7b7fdec0,"{""Q0"":""10"",""Q1"":""7"",""Q2"":""8"",""Q3"":""2"",""Q4"":""}","""","""","""","""",""""
254,254,24,1,"[{""page_index"":0,""viewing_time"":7202},{""page_index"":1,""viewing_time"":7655.69999999553},{""page_index"":2,""viewing_time"":8119.60000000149},{""page_index"":3,""viewing_time"":13192},{""page_index"":4,""viewing_time"":2096.3000000044703}]",38266.5,instructions,0,38272,70,6108b8e4431de3b4142c21c9,61153fa206d6663d6e7205a9,60fdf7bd91841ca8bafd320b,61153fa206d6663d6e7205a9,"""","""","""","""","""",""""
255,255,24,1,"""",8658.19999999553,survey-multi-choice,1,46935,70,6108b8e4431de3b4142c21c9,61153fa206d6663d6e7205a9,60fdf7bd91841ca8bafd320b,61153fa206d6663d6e7205a9,"{""Q0"":""Plans to achieve goals."",""Q1"":""By writing text.""}","[0,1]","""","""","""",""""
256,256,24,1,"[{""page_index"":0,""viewing_time"":1572.7999999970198}]",1573.1000000014901,instructions,2,48510,70,6108b8e4431de3b4142c21c9,61153fa206d6663d6e7205a9,60fdf7bd91841ca8bafd320b,61153fa206d6663d6e7205a9,"""","""","""","""","""",""""
257,257,24,1,"""",61954.69999999553,survey-text,3,110479,70,6108b8e4431de3b4142c21c9,61153fa206d6663d6e7205a9,60fdf7bd91841ca8bafd320b,61153fa206d6663d6e7205a9,"{""Plan"":""Stay relatively still while keeping as much of your body out of the quicksand as possible. Slowly wiggle our legs up while pushing forward with your arms. Repeat until you reach something you can grab onto to pull yourself out.""}","""",test,Escape quicksand.,generate plans,without using a branch
258,258,24,1,"""",56482.60000000149,survey-text,4,166967,70,6108b8e4431de3b4142c21c9,61153fa206d6663d6e7205a9,60fdf7bd91841ca8bafd320b,61153fa206d6663d6e7205a9,"{""Plan"":""Find a small, thin object such as a bobby pin or a toothpick. Wiggle the end around in the keyhole until you hear a click. ""}","""",test,Escape from inside a locked custodial closet.,generate plans,without using a phone
259,259,24,1,"""",59389.5,survey-text,5,226366,70,6108b8e4431de3b4142c21c9,61153fa206d6663d6e7205a9,60fdf7bd91841ca8bafd320b,61153fa206d6663d6e7205a9,"{""Plan"":""Fashion a catapult using a resistance band and a tree trunk, and launch yourself over the man.""}","""",test,Jump over a six foot tall man.,generate plans,without using a trampoline
260,260,24,1,"""",70564.5,survey-text,6,296935,70,6108b8e4431de3b4142c21c9,61153fa206d6663d6e7205a9,60fdf7bd91841ca8bafd320b,61153fa206d6663d6e7205a9,"{""Plan"":""Decorate the outside of a truck and ride in that instead of using a trailer.""}","""",test,Build a float to dazzle the crowd at the Macy's Day Parade.,generate plans,without using a trailer
261,261,24,1,"""",24866.60000000149,survey-text,7,321807,70,6108b8e4431de3b4142c21c9,61153fa206d6663d6e7205a9,60fdf7bd91841ca8bafd320b,61153fa206d6663d6e7205a9,"{""Plan"":""Find a recipe for a no-bake cheesecake online and follow the recipe.""}","""",test,Bake a cake.,generate plans,without using an oven
262,262,24,1,"""",34885.20000000298,survey-text,8,356696,70,6108b8e4431de3b4142c21c9,61153fa206d6663d6e7205a9,60fdf7bd91841ca8bafd320b,61153fa206d6663d6e7205a9,"{""Plan"":""Find a kitchen sponge and use it to paint the fence.""}","""",test,Paint a fence.,generate plans,without using a paint brush
263,263,24,1,"""",24952.40000000596,survey-text,9,381656,70,6108b8e4431de3b4142c21c9,61153fa206d6663d6e7205a9,60fdf7bd91841ca8bafd320b,61153fa206d6663d6e7205a9,"{""Plan"":""Build the deer a home out of sticks where it can easily hide from hunters.""}","""",test,Protect the deer in your nearby woods during hunting season.,generate plans,without using signs
264,264,24,1,"[{""page_index"":0,""viewing_time"":1574.3999999985099},{""page_index"":1,""viewing_time"":7959.79999999702}]",9534.89999999851,instructions,10,391192,70,6108b8e4431de3b4142c21c9,61153fa206d6663d6e7205a9,60fdf7bd91841ca8bafd320b,61153fa206d6663d6e7205a9,"""","""","""","""","""",""""
265,265,24,1,"""",5285.10000000149,survey-multi-choice,11,396480,70,6108b8e4431de3b4142c21c9,61153fa206d6663d6e7205a9,60fdf7bd91841ca8bafd320b,61153fa206d6663d6e7205a9,"{""Q0"":""How frequently you think people try to achieve each goal."",""Q1"":""By selecting an option from a multiple choice scale.""}","[0,1]","""","""","""",""""
266,266,24,1,"[{""page_index"":0,""viewing_time"":1086.3000000044703}]",1086.8000000044703,instructions,12,397568,70,6108b8e4431de3b4142c21c9,61153fa206d6663d6e7205a9,60fdf7bd91841ca8bafd320b,61153fa206d6663d6e7205a9,"""","""","""","""","""",""""
267,267,24,1,"""",8348.19999999553,survey-likert,13,405920,70,6108b8e4431de3b4142c21c9,61153fa206d6663d6e7205a9,60fdf7bd91841ca8bafd320b,61153fa206d6663d6e7205a9,"{""freq"":5}",[0],"""",Escape quicksand.,rate plans,without using a branch
268,268,24,1,"""",14693.19999999553,survey-likert,14,420616,70,6108b8e4431de3b4142c21c9,61153fa206d6663d6e7205a9,60fdf7bd91841ca8bafd320b,61153fa206d6663d6e7205a9,"{""freq"":3}",[0],"""",Escape from inside a locked custodial closet.,rate plans,without using a phone
269,269,24,1,"""",5755.29999999702,survey-likert,15,426376,70,6108b8e4431de3b4142c21c9,61153fa206d6663d6e7205a9,60fdf7bd91841ca8bafd320b,61153fa206d6663d6e7205a9,"{""freq"":6}",[0],"""",Jump over a six foot tall man.,rate plans,without using a trampoline
270,270,24,1,"""",7237.79999999702,survey-likert,16,433616,70,6108b8e4431de3b4142c21c9,61153fa206d6663d6e7205a9,60fdf7bd91841ca8bafd320b,61153fa206d6663d6e7205a9,"{""freq"":4}",[0],"""",Build a float to dazzle the crowd at the Macy's Day Parade.,rate plans,without using a trailer
271,271,24,1,"""",6564,survey-likert,17,440184,70,6108b8e4431de3b4142c21c9,61153fa206d6663d6e7205a9,60fdf7bd91841ca8bafd320b,61153fa206d6663d6e7205a9,"{""freq"":2}",[0],"""",Bake a cake.,rate plans,without using an oven
272,272,24,1,"""",3277,survey-likert,18,443464,70,6108b8e4431de3b4142c21c9,61153fa206d6663d6e7205a9,60fdf7bd91841ca8bafd320b,61153fa206d6663d6e7205a9,"{""freq"":3}",[0],"""",Paint a fence.,rate plans,without using a paint brush
273,273,24,1,"""",3868.1999999955297,survey-likert,19,447336,70,6108b8e4431de3b4142c21c9,61153fa206d6663d6e7205a9,60fdf7bd91841ca8bafd320b,61153fa206d6663d6e7205a9,"{""freq"":3}",[0],"""",Protect the deer in your nearby woods during hunting season.,rate plans,without using signs
274,274,24,1,"""",12714.90000000596,survey-text,20,460056,70,6108b8e4431de3b4142c21c9,61153fa206d6663d6e7205a9,60fdf7bd91841ca8bafd320b,61153fa206d6663d6e7205a9,"{""Q0"":""10"",""Q1"":""6"",""Q2"":""8"",""Q3"":""1"",""Q4"":""}","""","""","""","""",""""
275,275,25,4,"[{""page_index"":0,""viewing_time"":7682.199999809265},{""page_index"":1,""viewing_time"":31636.400000095367},{""page_index"":2,""viewing_time"":13454.900000095367},{""page_index"":3,""viewing_time"":14481.39999961853},{""page_index"":4,""viewing_time"":3489.1000003814697}]",70744.89999961853,instructions,0,70753,76,6108b8e4431de3b4142c21c9,61153f9f978e39209260acd3,6107bb16083d5b2aa382161f,61153f9f978e39209260acd3,"""","""","""","""","""",""""
276,276,25,4,"""",11753.900000095367,survey-multi-choice,1,82513,76,6108b8e4431de3b4142c21c9,61153f9f978e39209260acd3,6107bb16083d5b2aa382161f,61153f9f978e39209260acd3,"{""Q0"":""Plans to achieve goals."",""Q1"":""By writing text.""}","[0,1]","""","""","""",""""
277,277,25,4,"[{""page_index"":0,""viewing_time"":4059.5}]",4059.7999997138977,instructions,2,86575,76,6108b8e4431de3b4142c21c9,61153f9f978e39209260acd3,6107bb16083d5b2aa382161f,61153f9f978e39209260acd3,"""","""","""","""","""",""""
