,run_id,condition,view_history,rt,trial_type,trial_index,time_elapsed,PROLIFIC_PID,STUDY_ID,SESSION_ID,subject_id,session_id,response,question_order,phase,prompt,task,cause,result
0,11,3,"[{""page_index"":0,""viewing_time"":7488.800000000745},{""page_index"":1,""viewing_time"":34936.90000000037},{""page_index"":2,""viewing_time"":9280.900000000373},{""page_index"":3,""viewing_time"":8199.39999999851}]",59907.10000000149,instructions,0,59912,40,61b38ae9363f15657027ed01,61ba1f38eeeea1a4ff8eb1d9,61697550d3595ef0cc0c1b6e,61ba1f38eeeea1a4ff8eb1d9,"""","""","""","""","""","""",""""
1,11,3,"""",50598.5,survey-text,1,110539,40,61b38ae9363f15657027ed01,61ba1f38eeeea1a4ff8eb1d9,61697550d3595ef0cc0c1b6e,61ba1f38eeeea1a4ff8eb1d9,"{""Q0"":""I commit to do my best to try to write high-quality explanations. I recognize that if I do not try my best to generate an explanation for each situation, I may not be paid. ""}","""","""","""","""","""",""""
2,11,3,"[{""page_index"":0,""viewing_time"":2147.2000000011176}]",2147.60000000149,instructions,2,112688,40,61b38ae9363f15657027ed01,61ba1f38eeeea1a4ff8eb1d9,61697550d3595ef0cc0c1b6e,61ba1f38eeeea1a4ff8eb1d9,"""","""","""","""","""","""",""""
3,11,3,"""",11533.700000001118,survey-multi-choice,3,124228,40,61b38ae9363f15657027ed01,61ba1f38eeeea1a4ff8eb1d9,61697550d3595ef0cc0c1b6e,61ba1f38eeeea1a4ff8eb1d9,"{""Q0"":""Explanations for events."",""Q1"":""By writing text."",""Q2"":""Not making a good attempt to write a high-quality answer for each task.""}","[0,1,2]","""","""","""","""",""""
4,11,3,"[{""page_index"":0,""viewing_time"":1429.8999999985099}]",1430.0999999996277,instructions,4,125661,40,61b38ae9363f15657027ed01,61ba1f38eeeea1a4ff8eb1d9,61697550d3595ef0cc0c1b6e,61ba1f38eeeea1a4ff8eb1d9,"""","""","""","""","""","""",""""
5,11,3,"""",45942.0,survey-text,5,171610,40,61b38ae9363f15657027ed01,61ba1f38eeeea1a4ff8eb1d9,61697550d3595ef0cc0c1b6e,61ba1f38eeeea1a4ff8eb1d9,"{""Explanation"":""perhaps the cymbal that was hit was hit with a defective drum stick. A padded drum stick or a cymbal that is muffled could cause it not to clang. ""}","""",test,"If a cymbal is hit with a drum stick, then it clangs. But suppose a cymbal is hit with a drum stick, and then it does not clang.","generate, unconstrained","""",""""
6,11,3,"""",33220.79999999888,survey-text,6,204837,40,61b38ae9363f15657027ed01,61ba1f38eeeea1a4ff8eb1d9,61697550d3595ef0cc0c1b6e,61ba1f38eeeea1a4ff8eb1d9,"{""Explanation"":""if they landed on their wrist at just the right angle they could bend it a different way and not break their wrists. ""}","""",test,"If someone falls from a high height onto their outstretched arm, then they will break their wrist. But suppose someone falls from a high height onto their outstretched arm, and then they do not break their wrist.","generate, unconstrained","""",""""
7,11,3,"""",25072.800000000745,survey-text,7,229915,40,61b38ae9363f15657027ed01,61ba1f38eeeea1a4ff8eb1d9,61697550d3595ef0cc0c1b6e,61ba1f38eeeea1a4ff8eb1d9,"{""Explanation"":""the slushie did not stain the carpet because the carpet was made with stain resistant material. ""}","""",test,"If a blue slushie is spilled on a carpet, then the carpet is stained blue. But suppose a blue slushie is spilled on a carpet, and then the carpet is not stained blue.","generate, unconstrained","""",""""
8,11,3,"""",19306.70000000112,survey-text,8,249226,40,61b38ae9363f15657027ed01,61ba1f38eeeea1a4ff8eb1d9,61697550d3595ef0cc0c1b6e,61ba1f38eeeea1a4ff8eb1d9,"{""Explanation"":""the water may not have frozen because the freezer was not turned on or cold enough to cause it to freeze. ""}","""",test,"If water is put in the freezer, then it turns into ice. But suppose water is put in the freezer, and then it does not turn into ice.","generate, unconstrained","""",""""
9,11,3,"""",24315.70000000112,survey-text,9,273548,40,61b38ae9363f15657027ed01,61ba1f38eeeea1a4ff8eb1d9,61697550d3595ef0cc0c1b6e,61ba1f38eeeea1a4ff8eb1d9,"{""Explanation"":""the gates may have been opened by someone else or the animals learned to open them.""}","""",test,"If the the gates in a zoo are closed, then the zoo animals do not escape. But suppose the gates in a zoo are closed, and then the animals do escape.","generate, unconstrained","""",""""
10,11,3,"""",18769.400000000373,survey-text,10,292322,40,61b38ae9363f15657027ed01,61ba1f38eeeea1a4ff8eb1d9,61697550d3595ef0cc0c1b6e,61ba1f38eeeea1a4ff8eb1d9,"{""Explanation"":""they did not cough in wildfire smoke because they were wearing protective breathing equipment""}","""",test,"If a person breathes in wildfire smoke, then they cough. But suppose a person breathes in wildfire smoke, and then they do not cough.","generate, unconstrained","""",""""
11,11,3,"""",22160.800000000745,survey-text,11,314489,40,61b38ae9363f15657027ed01,61ba1f38eeeea1a4ff8eb1d9,61697550d3595ef0cc0c1b6e,61ba1f38eeeea1a4ff8eb1d9,"{""Explanation"":""the meteor was not of significant size or did not gain enough speed to cause a crater. ""}","""",test,"If a meteor hits the ground, then a crater is made. But suppose a meteor hits the ground, and then a crater is not made.","generate, unconstrained","""",""""
12,11,3,"[{""page_index"":0,""viewing_time"":1934.3999999985099},{""page_index"":1,""viewing_time"":9387.800000000745}]",11322.699999999257,instructions,12,325813,40,61b38ae9363f15657027ed01,61ba1f38eeeea1a4ff8eb1d9,61697550d3595ef0cc0c1b6e,61ba1f38eeeea1a4ff8eb1d9,"""","""","""","""","""","""",""""
13,11,3,"""",8198.900000000373,survey-multi-choice,13,334016,40,61b38ae9363f15657027ed01,61ba1f38eeeea1a4ff8eb1d9,61697550d3595ef0cc0c1b6e,61ba1f38eeeea1a4ff8eb1d9,"{""Q0"":""How frequently you think events occur in the real-world."",""Q1"":""By selecting an option from a multiple choice scale.""}","[0,1]","""","""","""","""",""""
14,11,3,"[{""page_index"":0,""viewing_time"":1201.5999999996275}]",1202.0,instructions,14,335220,40,61b38ae9363f15657027ed01,61ba1f38eeeea1a4ff8eb1d9,61697550d3595ef0cc0c1b6e,61ba1f38eeeea1a4ff8eb1d9,"""","""","""","""","""","""",""""
15,11,3,"""",20576.70000000112,survey-likert,15,355803,40,61b38ae9363f15657027ed01,61ba1f38eeeea1a4ff8eb1d9,61697550d3595ef0cc0c1b6e,61ba1f38eeeea1a4ff8eb1d9,"{""freqX"":2,""freqY_givenX"":3}","[0,1]",test,"If a cymbal is hit with a drum stick, then it clangs. But suppose a cymbal is hit with a drum stick, and then it does not clang.","""",a cymbal is hit with a drum stick,it clangs
16,11,3,"""",10697.900000000373,survey-likert,16,366506,40,61b38ae9363f15657027ed01,61ba1f38eeeea1a4ff8eb1d9,61697550d3595ef0cc0c1b6e,61ba1f38eeeea1a4ff8eb1d9,"{""freqX"":2,""freqY_givenX"":3}","[0,1]",test,"If someone falls from a high height onto their outstretched arm, then they will break their wrist. But suppose someone falls from a high height onto their outstretched arm, and then they do not break their wrist.","""",someone falls from a high height onto their outstretched arm,they break their wrist
17,11,3,"""",7692.400000000372,survey-likert,17,374204,40,61b38ae9363f15657027ed01,61ba1f38eeeea1a4ff8eb1d9,61697550d3595ef0cc0c1b6e,61ba1f38eeeea1a4ff8eb1d9,"{""freqX"":2,""freqY_givenX"":3}","[0,1]",test,"If a blue slushie is spilled on a carpet, then the carpet is stained blue. But suppose a blue slushie is spilled on a carpet, and then the carpet is not stained blue.","""",a blue slushie is spilled on a carpet,the carpet is stained blue
18,11,3,"""",11170.299999998882,survey-likert,18,385378,40,61b38ae9363f15657027ed01,61ba1f38eeeea1a4ff8eb1d9,61697550d3595ef0cc0c1b6e,61ba1f38eeeea1a4ff8eb1d9,"{""freqX"":1,""freqY_givenX"":2}","[0,1]",test,"If water is put in the freezer, then it turns into ice. But suppose water is put in the freezer, and then it does not turn into ice.","""",water is put in the freezer,it turns into ice
19,11,3,"""",8949.5,survey-likert,19,394334,40,61b38ae9363f15657027ed01,61ba1f38eeeea1a4ff8eb1d9,61697550d3595ef0cc0c1b6e,61ba1f38eeeea1a4ff8eb1d9,"{""freqX"":2,""freqY_givenX"":3}","[0,1]",test,"If the the gates in a zoo are closed, then the zoo animals do not escape. But suppose the gates in a zoo are closed, and then the animals do escape.","""",the gates in a zoo are closed,the zoo animals do not escape
20,11,3,"""",11886.5,survey-likert,20,406224,40,61b38ae9363f15657027ed01,61ba1f38eeeea1a4ff8eb1d9,61697550d3595ef0cc0c1b6e,61ba1f38eeeea1a4ff8eb1d9,"{""freqX"":3,""freqY_givenX"":2}","[0,1]",test,"If a person breathes in wildfire smoke, then they cough. But suppose a person breathes in wildfire smoke, and then they do not cough.","""",a person breathes in wildfire smoke,they cough
21,11,3,"""",9682.39999999851,survey-likert,21,415912,40,61b38ae9363f15657027ed01,61ba1f38eeeea1a4ff8eb1d9,61697550d3595ef0cc0c1b6e,61ba1f38eeeea1a4ff8eb1d9,"{""freqX"":3,""freqY_givenX"":3}","[0,1]",test,"If a meteor hits the ground, then a crater is made. But suppose a meteor hits the ground, and then a crater is not made.","""",a meteor hits the ground,a crater is made
22,11,3,"""",15253.699999999257,survey-text,22,431172,40,61b38ae9363f15657027ed01,61ba1f38eeeea1a4ff8eb1d9,61697550d3595ef0cc0c1b6e,61ba1f38eeeea1a4ff8eb1d9,"{""Q0"":""10"",""Q1"":""3"",""Q2"":""10"",""Q3"":""3"",""Q4"":""}","""","""","""","""","""",""""
23,10,2,"[{""page_index"":0,""viewing_time"":5591.299999952316},{""page_index"":1,""viewing_time"":6227.200000047684},{""page_index"":2,""viewing_time"":12960.200000047684},{""page_index"":3,""viewing_time"":7609.599999904633}]",32389.29999995232,instructions,0,32393,29,61b38ae9363f15657027ed01,61ba1f1eb68f4ef65393fb4c,610013cef98672c7216d4eea,61ba1f1eb68f4ef65393fb4c,"""","""","""","""","""","""",""""
24,10,2,"""",65561.5,survey-text,1,97965,29,61b38ae9363f15657027ed01,61ba1f1eb68f4ef65393fb4c,610013cef98672c7216d4eea,61ba1f1eb68f4ef65393fb4c,"{""Q0"":""I commit to do my best to try to write high-quality explanations.  I recognize that if I do not try to do my best to generate an explanation for each situation, I may not be paid.""}","""","""","""","""","""",""""
25,10,2,"[{""page_index"":0,""viewing_time"":2867.5}]",2867.700000047684,instructions,2,100834,29,61b38ae9363f15657027ed01,61ba1f1eb68f4ef65393fb4c,610013cef98672c7216d4eea,61ba1f1eb68f4ef65393fb4c,"""","""","""","""","""","""",""""
26,10,2,"""",15840.5,survey-multi-choice,3,116679,29,61b38ae9363f15657027ed01,61ba1f1eb68f4ef65393fb4c,610013cef98672c7216d4eea,61ba1f1eb68f4ef65393fb4c,"{""Q0"":""Explanations for events."",""Q1"":""By writing text."",""Q2"":""Not making a good attempt to write a high-quality answer for each task.""}","[0,1,2]","""","""","""","""",""""
27,10,2,"[{""page_index"":0,""viewing_time"":1986.2999999523163}]",1986.6000001430511,instructions,4,118667,29,61b38ae9363f15657027ed01,61ba1f1eb68f4ef65393fb4c,610013cef98672c7216d4eea,61ba1f1eb68f4ef65393fb4c,"""","""","""","""","""","""",""""
28,10,2,"""",57963.10000014305,survey-text,5,176636,29,61b38ae9363f15657027ed01,61ba1f1eb68f4ef65393fb4c,610013cef98672c7216d4eea,61ba1f1eb68f4ef65393fb4c,"{""Explanation"":""This could have happened because the tail was not pulled hard enough.""}","""",test,"If a cat's tail is pulled, then the cat yowls. But suppose a cat's tail is pulled, and then the cat does not yowl.","generate, unconstrained","""",""""
29,10,2,"""",49683.20000004768,survey-text,6,226322,29,61b38ae9363f15657027ed01,61ba1f1eb68f4ef65393fb4c,610013cef98672c7216d4eea,61ba1f1eb68f4ef65393fb4c,"{""Explanation"":""This could have happened because something might be covering part of the grass and so making the rain not be able to hit that part.""}","""",test,"If it rains over grass, then the grass becomes wet. But suppose it rains, and then the grass does not become wet.","generate, unconstrained","""",""""
30,10,2,"""",35658.60000014305,survey-text,7,261985,29,61b38ae9363f15657027ed01,61ba1f1eb68f4ef65393fb4c,610013cef98672c7216d4eea,61ba1f1eb68f4ef65393fb4c,"{""Explanation"":""THis could have happened because the cannon might have gotten jammed and the cannon didnt fire correctly.""}","""",test,"If a confetti cannon is fired, then it produces a loud noise. But suppose a confetti cannon is fired, and then it does not produce a loud noise.","generate, unconstrained","""",""""
31,10,2,"""",30741.10000014305,survey-text,8,292730,29,61b38ae9363f15657027ed01,61ba1f1eb68f4ef65393fb4c,610013cef98672c7216d4eea,61ba1f1eb68f4ef65393fb4c,"{""Explanation"":""This could have happened because the snowman was not a real snowman but rather a decorative one.""}","""",test,"If the weather gets hotter around a snowman in a backyard, then the snowman melts. But suppose the weather gets hotter around a snowman in a backyard, and then the snowman does not melt.","generate, unconstrained","""",""""
32,10,2,"""",24708.700000047684,survey-text,9,317444,29,61b38ae9363f15657027ed01,61ba1f1eb68f4ef65393fb4c,610013cef98672c7216d4eea,61ba1f1eb68f4ef65393fb4c,"{""Explanation"":""This could have happened because the shelved were bolted to the wall.""}","""",test,"If a severe earthquake occurs near an office building, then the shelves in the office fall down. But suppose a severe earthquake occurs near an office building, and then the shelves in the office do not fall down.","generate, unconstrained","""",""""
33,10,2,"""",30443.30000019073,survey-text,10,347891,29,61b38ae9363f15657027ed01,61ba1f1eb68f4ef65393fb4c,610013cef98672c7216d4eea,61ba1f1eb68f4ef65393fb4c,"{""Explanation"":""The could have happened because the screws that were holding the bolt in place became loose.""}","""",test,"If a door is locked with a bolt, then it cannot be opened. But suppose a door is locked with a bolt, and then it is opened.","generate, unconstrained","""",""""
34,10,2,"""",35284.699999809265,survey-text,11,383178,29,61b38ae9363f15657027ed01,61ba1f1eb68f4ef65393fb4c,610013cef98672c7216d4eea,61ba1f1eb68f4ef65393fb4c,"{""Explanation"":""This could have happened because they were a cactus type of plant that doesnt require much water to live.""}","""",test,"If plants are not watered, then they die. But suppose plants are not watered, and then they do not die.","generate, unconstrained","""",""""
35,10,2,"[{""page_index"":0,""viewing_time"":2942.0999999046326},{""page_index"":1,""viewing_time"":19933.700000047684}]",22876.200000047684,instructions,12,406055,29,61b38ae9363f15657027ed01,61ba1f1eb68f4ef65393fb4c,610013cef98672c7216d4eea,61ba1f1eb68f4ef65393fb4c,"""","""","""","""","""","""",""""
36,10,2,"""",8145.399999856949,survey-multi-choice,13,414205,29,61b38ae9363f15657027ed01,61ba1f1eb68f4ef65393fb4c,610013cef98672c7216d4eea,61ba1f1eb68f4ef65393fb4c,"{""Q0"":""How frequently you think events occur in the real-world."",""Q1"":""By selecting an option from a multiple choice scale.""}","[0,1]","""","""","""","""",""""
37,10,2,"[{""page_index"":0,""viewing_time"":1589.4000000953674}]",1589.6000001430511,instructions,14,415795,29,61b38ae9363f15657027ed01,61ba1f1eb68f4ef65393fb4c,610013cef98672c7216d4eea,61ba1f1eb68f4ef65393fb4c,"""","""","""","""","""","""",""""
38,10,2,"""",31711.80000019073,survey-likert,15,447513,29,61b38ae9363f15657027ed01,61ba1f1eb68f4ef65393fb4c,610013cef98672c7216d4eea,61ba1f1eb68f4ef65393fb4c,"{""freqX"":1,""freqY_givenX"":2}","[0,1]",test,"If a cat's tail is pulled, then the cat yowls. But suppose a cat's tail is pulled, and then the cat does not yowl.","""",a cat's tail is pulled,the cat yowls
39,10,2,"""",17588.099999904633,survey-likert,16,465104,29,61b38ae9363f15657027ed01,61ba1f1eb68f4ef65393fb4c,610013cef98672c7216d4eea,61ba1f1eb68f4ef65393fb4c,"{""freqX"":1,""freqY_givenX"":2}","[0,1]",test,"If it rains over grass, then the grass becomes wet. But suppose it rains, and then the grass does not become wet.","""",it rains over grass,the grass gets wet
40,10,2,"""",23624.599999904636,survey-likert,17,488734,29,61b38ae9363f15657027ed01,61ba1f1eb68f4ef65393fb4c,610013cef98672c7216d4eea,61ba1f1eb68f4ef65393fb4c,"{""freqX"":2,""freqY_givenX"":1}","[0,1]",test,"If a confetti cannon is fired, then it produces a loud noise. But suppose a confetti cannon is fired, and then it does not produce a loud noise.","""",a confetti cannon is fired,it produces a loud noise
41,10,2,"""",21216.5,survey-likert,18,509954,29,61b38ae9363f15657027ed01,61ba1f1eb68f4ef65393fb4c,610013cef98672c7216d4eea,61ba1f1eb68f4ef65393fb4c,"{""freqX"":1,""freqY_givenX"":1}","[0,1]",test,"If the weather gets hotter around a snowman in a backyard, then the snowman melts. But suppose the weather gets hotter around a snowman in a backyard, and then the snowman does not melt.","""",the weather gets hotter around a snowman in a backyard,the snowman melts
42,10,2,"""",17681.200000047684,survey-likert,19,527640,29,61b38ae9363f15657027ed01,61ba1f1eb68f4ef65393fb4c,610013cef98672c7216d4eea,61ba1f1eb68f4ef65393fb4c,"{""freqX"":2,""freqY_givenX"":1}","[0,1]",test,"If a severe earthquake occurs near an office building, then the shelves in the office fall down. But suppose a severe earthquake occurs near an office building, and then the shelves in the office do not fall down.","""",a severe earthquake occurs near an office building,the shelves in the office fall down
43,10,2,"""",19189.099999904636,survey-likert,20,546832,29,61b38ae9363f15657027ed01,61ba1f1eb68f4ef65393fb4c,610013cef98672c7216d4eea,61ba1f1eb68f4ef65393fb4c,"{""freqX"":1,""freqY_givenX"":1}","[0,1]",test,"If a door is locked with a bolt, then it cannot be opened. But suppose a door is locked with a bolt, and then it is opened.","""",a door is locked with a bolt,the door cannot be opened
44,10,2,"""",8202.5,survey-likert,21,555040,29,61b38ae9363f15657027ed01,61ba1f1eb68f4ef65393fb4c,610013cef98672c7216d4eea,61ba1f1eb68f4ef65393fb4c,"{""freqX"":1,""freqY_givenX"":1}","[0,1]",test,"If plants are not watered, then they die. But suppose plants are not watered, and then they do not die.","""",plants are not watered,they die
45,10,2,"""",27305.29999995232,survey-text,22,582349,29,61b38ae9363f15657027ed01,61ba1f1eb68f4ef65393fb4c,610013cef98672c7216d4eea,61ba1f1eb68f4ef65393fb4c,"{""Q0"":""9"",""Q1"":""4"",""Q2"":""5"",""Q3"":""4"",""Q4"":""no""}","""","""","""","""","""",""""
46,21,4,"[{""page_index"":0,""viewing_time"":8830.599999904633},{""page_index"":1,""viewing_time"":69931.69999980927},{""page_index"":2,""viewing_time"":22227.800000190735},{""page_index"":3,""viewing_time"":9993.900000095367}]",110985.2999997139,instructions,0,110990,24,61b38ae9363f15657027ed01,61ba275ec2c48f164806c344,5fc98bb760422d47c315d393,61ba275ec2c48f164806c344,"""","""","""","""","""","""",""""
47,21,4,"""",56659.59999990463,survey-text,1,167660,24,61b38ae9363f15657027ed01,61ba275ec2c48f164806c344,5fc98bb760422d47c315d393,61ba275ec2c48f164806c344,"{""Q0"":""I commit to do my best to try to write high-quality explanations. I recognize that if I do not try my best to generate an explanation for each sitation, I may not be paid.""}","""","""","""","""","""",""""
48,21,4,"[{""page_index"":0,""viewing_time"":1903.5}]",1904.1000003814695,instructions,2,169565,24,61b38ae9363f15657027ed01,61ba275ec2c48f164806c344,5fc98bb760422d47c315d393,61ba275ec2c48f164806c344,"""","""","""","""","""","""",""""
49,21,4,"""",13309.5,survey-multi-choice,3,182878,24,61b38ae9363f15657027ed01,61ba275ec2c48f164806c344,5fc98bb760422d47c315d393,61ba275ec2c48f164806c344,"{""Q0"":""Explanations for events."",""Q1"":""By writing text."",""Q2"":""Not making a good attempt to write a high-quality answer for each task.""}","[0,1,2]","""","""","""","""",""""
50,21,4,"[{""page_index"":0,""viewing_time"":1376}]",1376.2000002861023,instructions,4,184259,24,61b38ae9363f15657027ed01,61ba275ec2c48f164806c344,5fc98bb760422d47c315d393,61ba275ec2c48f164806c344,"""","""","""","""","""","""",""""
51,21,4,"""",53568.7999997139,survey-text,5,237832,24,61b38ae9363f15657027ed01,61ba275ec2c48f164806c344,5fc98bb760422d47c315d393,61ba275ec2c48f164806c344,"{""Explanation"":""there was faulty wiring installed into the fire alarm.""}","""",test,"If a fire in an apartment occurs, then the fire alarm goes off. But suppose a fire in an apartment occurs, and then the fire alarm do not goes off.","generate, unconstrained","""",""""
52,21,4,"""",37978.10000038147,survey-text,6,275814,24,61b38ae9363f15657027ed01,61ba275ec2c48f164806c344,5fc98bb760422d47c315d393,61ba275ec2c48f164806c344,"{""Explanation"":""their water bill might not have been paid.""}","""",test,"If someone turns on a bathtub tap, then a bathtub fills with water. But suppose someone turns on a bathtub tap, and then the bathtub does not fill with water.","generate, unconstrained","""",""""
53,21,4,"""",94204.5,survey-text,7,370023,24,61b38ae9363f15657027ed01,61ba275ec2c48f164806c344,5fc98bb760422d47c315d393,61ba275ec2c48f164806c344,"{""Explanation"":""they took medicine prior to touching the poison ivy. If the proper cream were applied, the poison ivy would not cause a rash.""}","""",test,"If someone touches poison ivy, then they get a rash. But suppose touches poison ivy, and then they do not get a rash.","generate, unconstrained","""",""""
54,21,4,"""",59027.2000002861,survey-text,8,429053,24,61b38ae9363f15657027ed01,61ba275ec2c48f164806c344,5fc98bb760422d47c315d393,61ba275ec2c48f164806c344,"{""Explanation"":""the window was installed with thick, shatter-proof glass. ""}","""",test,"If rocks are thrown at a window, then the window breaks. But suppose rocks are thrown at a window, and then the window does not break.","generate, unconstrained","""",""""
55,21,4,"""",29158.80000019073,survey-text,9,458216,24,61b38ae9363f15657027ed01,61ba275ec2c48f164806c344,5fc98bb760422d47c315d393,61ba275ec2c48f164806c344,"{""Explanation"":""The impact of the fall was not hard enough to cause a scrape to the knee.""}","""",test,"If someone falls on the sidewalk, then they scrape your knee. But suppose someone falls on the sidewalk, and then they do not scrape their knee.","generate, unconstrained","""",""""
56,21,4,"""",47109.2000002861,survey-text,10,505328,24,61b38ae9363f15657027ed01,61ba275ec2c48f164806c344,5fc98bb760422d47c315d393,61ba275ec2c48f164806c344,"{""Explanation"":""proper pesticide was used before the pest outbreak began. The pests died and the crops survived.""}","""",test,"If pest outbreaks occur on a farm, then crops in the farm die. But suppose pest outbreaks occur on a farm, and then crops in the farm do not die.","generate, unconstrained","""",""""
57,21,4,"""",37340.0,survey-text,11,542672,24,61b38ae9363f15657027ed01,61ba275ec2c48f164806c344,5fc98bb760422d47c315d393,61ba275ec2c48f164806c344,"{""Explanation"":""the eggs fell on a soft surface that prevented them from breaking.""}","""",test,"If an egg carton is dropped, then the eggs break. But suppose an egg carton is dropped, and then the eggs do not break.","generate, unconstrained","""",""""
58,21,4,"[{""page_index"":0,""viewing_time"":1606.5999999046326},{""page_index"":1,""viewing_time"":6693.799999713898}]",8301.0,instructions,12,550973,24,61b38ae9363f15657027ed01,61ba275ec2c48f164806c344,5fc98bb760422d47c315d393,61ba275ec2c48f164806c344,"""","""","""","""","""","""",""""
59,21,4,"""",11455.099999904633,survey-multi-choice,13,562432,24,61b38ae9363f15657027ed01,61ba275ec2c48f164806c344,5fc98bb760422d47c315d393,61ba275ec2c48f164806c344,"{""Q0"":""How frequently you think events occur in the real-world."",""Q1"":""By selecting an option from a multiple choice scale.""}","[0,1]","""","""","""","""",""""
60,21,4,"[{""page_index"":0,""viewing_time"":1851.5}]",1852.0999999046328,instructions,14,564289,24,61b38ae9363f15657027ed01,61ba275ec2c48f164806c344,5fc98bb760422d47c315d393,61ba275ec2c48f164806c344,"""","""","""","""","""","""",""""
61,21,4,"""",22469.5,survey-likert,15,586762,24,61b38ae9363f15657027ed01,61ba275ec2c48f164806c344,5fc98bb760422d47c315d393,61ba275ec2c48f164806c344,"{""freqX"":2,""freqY_givenX"":1}","[0,1]",test,"If a fire in an apartment occurs, then the fire alarm goes off. But suppose a fire in an apartment occurs, and then the fire alarm do not goes off.","""",a fire in an apartment occurs,the fire alarm goes off
62,21,4,"""",12866.400000095367,survey-likert,16,599634,24,61b38ae9363f15657027ed01,61ba275ec2c48f164806c344,5fc98bb760422d47c315d393,61ba275ec2c48f164806c344,"{""freqX"":0,""freqY_givenX"":0}","[0,1]",test,"If someone turns on a bathtub tap, then a bathtub fills with water. But suppose someone turns on a bathtub tap, and then the bathtub does not fill with water.","""",someone turns on a bathtub tap,the bathtub fills with water
63,21,4,"""",17479.900000095367,survey-likert,17,617122,24,61b38ae9363f15657027ed01,61ba275ec2c48f164806c344,5fc98bb760422d47c315d393,61ba275ec2c48f164806c344,"{""freqX"":2,""freqY_givenX"":1}","[0,1]",test,"If someone touches poison ivy, then they get a rash. But suppose touches poison ivy, and then they do not get a rash.","""","someone touches poison ivy,",they get a rash
64,21,4,"""",15443.89999961853,survey-likert,18,632572,24,61b38ae9363f15657027ed01,61ba275ec2c48f164806c344,5fc98bb760422d47c315d393,61ba275ec2c48f164806c344,"{""freqX"":2,""freqY_givenX"":2}","[0,1]",test,"If rocks are thrown at a window, then the window breaks. But suppose rocks are thrown at a window, and then the window does not break.","""",rocks are thrown at a window,the window breaks
65,21,4,"""",11166.5,survey-likert,19,643746,24,61b38ae9363f15657027ed01,61ba275ec2c48f164806c344,5fc98bb760422d47c315d393,61ba275ec2c48f164806c344,"{""freqX"":1,""freqY_givenX"":0}","[0,1]",test,"If someone falls on the sidewalk, then they scrape your knee. But suppose someone falls on the sidewalk, and then they do not scrape their knee.","""",someone falls on the sidewalk,they scrape their knee
66,21,4,"""",22945.5,survey-likert,20,666697,24,61b38ae9363f15657027ed01,61ba275ec2c48f164806c344,5fc98bb760422d47c315d393,61ba275ec2c48f164806c344,"{""freqX"":4,""freqY_givenX"":3}","[0,1]",test,"If pest outbreaks occur on a farm, then crops in the farm die. But suppose pest outbreaks occur on a farm, and then crops in the farm do not die.","""",pest outbreaks occur on a farm,crops on the farm die
67,21,4,"""",5421.5,survey-likert,21,672126,24,61b38ae9363f15657027ed01,61ba275ec2c48f164806c344,5fc98bb760422d47c315d393,61ba275ec2c48f164806c344,"{""freqX"":0,""freqY_givenX"":1}","[0,1]",test,"If an egg carton is dropped, then the eggs break. But suppose an egg carton is dropped, and then the eggs do not break.","""",an egg carton is dropped,the eggs break
68,21,4,"""",23180.10000038147,survey-text,22,695315,24,61b38ae9363f15657027ed01,61ba275ec2c48f164806c344,5fc98bb760422d47c315d393,61ba275ec2c48f164806c344,"{""Q0"":""9"",""Q1"":""6"",""Q2"":""10"",""Q3"":""5"",""Q4"":""thank you for hosting this survey.""}","""","""","""","""","""",""""
69,23,1,"[{""page_index"":0,""viewing_time"":3667.199999988079},{""page_index"":1,""viewing_time"":43788.5},{""page_index"":2,""viewing_time"":9964.300000011921},{""page_index"":3,""viewing_time"":8405}]",65825.89999997616,instructions,0,65838,9,61b38ae9363f15657027ed01,61ba5058eb2ce65c2c1cd4a5,5c5badb6a333b50001db9724,61ba5058eb2ce65c2c1cd4a5,"""","""","""","""","""","""",""""
70,23,1,"""",44121.0,survey-text,1,109974,9,61b38ae9363f15657027ed01,61ba5058eb2ce65c2c1cd4a5,5c5badb6a333b50001db9724,61ba5058eb2ce65c2c1cd4a5,"{""Q0"":""I commit to do my best to try to write high-quality explanations. I recognize that if I do not try my best to generate an explanation for each situation, I may not be paid.""}","""","""","""","""","""",""""
71,23,1,"[{""page_index"":0,""viewing_time"":3650.5}]",3650.799999952316,instructions,2,113626,9,61b38ae9363f15657027ed01,61ba5058eb2ce65c2c1cd4a5,5c5badb6a333b50001db9724,61ba5058eb2ce65c2c1cd4a5,"""","""","""","""","""","""",""""
72,23,1,"""",16090.799999952316,survey-multi-choice,3,129721,9,61b38ae9363f15657027ed01,61ba5058eb2ce65c2c1cd4a5,5c5badb6a333b50001db9724,61ba5058eb2ce65c2c1cd4a5,"{""Q0"":""Explanations for events."",""Q1"":""By writing text."",""Q2"":""Not making a good attempt to write a high-quality answer for each task.""}","[0,1,2]","""","""","""","""",""""
73,23,1,"[{""page_index"":0,""viewing_time"":1618.8999999761581}]",1619.100000023842,instructions,4,131342,9,61b38ae9363f15657027ed01,61ba5058eb2ce65c2c1cd4a5,5c5badb6a333b50001db9724,61ba5058eb2ce65c2c1cd4a5,"""","""","""","""","""","""",""""
74,23,1,"""",34395.19999998808,survey-text,5,165742,9,61b38ae9363f15657027ed01,61ba5058eb2ce65c2c1cd4a5,5c5badb6a333b50001db9724,61ba5058eb2ce65c2c1cd4a5,"{""Explanation"":""the metal detectors were faulty.""}","""",test,"If someone walks through a metal detector with a metal watch, then alarms go off. But suppose someone walks through a metal detector with a metal watch, and then alarms do not go off.","generate, unconstrained","""",""""
75,23,1,"""",81064.90000003576,survey-text,6,246809,9,61b38ae9363f15657027ed01,61ba5058eb2ce65c2c1cd4a5,5c5badb6a333b50001db9724,61ba5058eb2ce65c2c1cd4a5,"{""Explanation"":""there are other variables at hand. Exercise, activities, food intake, and more all play a hand in balancing your sleep schedule.""}","""",test,"If someone drinks lots of coffee , then they have trouble sleeping. But suppose someone drinks lots of coffee, and then they have do not have trouble sleeping.","generate, unconstrained","""",""""
76,23,1,"""",63528.20000004768,survey-text,7,310341,9,61b38ae9363f15657027ed01,61ba5058eb2ce65c2c1cd4a5,5c5badb6a333b50001db9724,61ba5058eb2ce65c2c1cd4a5,"{""Explanation"":""the car was moving a lot of weight. Whether it be multiple passengers, a load of items, or the car was towing a trailer.""}","""",test,"If a car's gas pedal is pressed all the way down, then the car drives very quickly. But suppose a car's gas pedal is pressed all the way down, and then the car does not drive very quickly.","generate, unconstrained","""",""""
77,23,1,"""",38456.19999998808,survey-text,8,348804,9,61b38ae9363f15657027ed01,61ba5058eb2ce65c2c1cd4a5,5c5badb6a333b50001db9724,61ba5058eb2ce65c2c1cd4a5,"{""Explanation"":""the piano was dropped onto a giant pillow that broke the pianos fall, therefore keeping it in tact.""}","""",test,"If a piano is dropped from a skyscraper, then the piano shatters. But suppose a piano is dropped from a skyscraper, and then the piano does not shatter.","generate, unconstrained","""",""""
78,23,1,"""",30427.10000002384,survey-text,9,379235,9,61b38ae9363f15657027ed01,61ba5058eb2ce65c2c1cd4a5,5c5badb6a333b50001db9724,61ba5058eb2ce65c2c1cd4a5,"{""Explanation"":""The light has an internal battery that has enough charge to power the light.""}","""",test,"If a light is unplugged, then the light cannot turn on. But suppose a light is unplugged, and then the light can turn on.","generate, unconstrained","""",""""
79,23,1,"""",32917.19999998808,survey-text,10,412156,9,61b38ae9363f15657027ed01,61ba5058eb2ce65c2c1cd4a5,5c5badb6a333b50001db9724,61ba5058eb2ce65c2c1cd4a5,"{""Explanation"":""The floor is meant to absorb movements or shocks.""}","""",test,"If someone does 50 jumping jacks in a room with a tower of dominos, then the tower of dominos falls over. But suppose someone does 50 jumping jacks in a room with a tower of dominos, and then the tower of dominos does not fall over.","generate, unconstrained","""",""""
80,23,1,"""",27371.400000035763,survey-text,11,439532,9,61b38ae9363f15657027ed01,61ba5058eb2ce65c2c1cd4a5,5c5badb6a333b50001db9724,61ba5058eb2ce65c2c1cd4a5,"{""Explanation"":""the apple may have gotten stuck on a branch before hitting the ground.""}","""",test,"If an apple falls from a tree, then it hits the ground. But suppose an apple falls from a tree, and then it does not hit the ground.","generate, unconstrained","""",""""
81,23,1,"[{""page_index"":0,""viewing_time"":2217.699999988079},{""page_index"":1,""viewing_time"":17633.100000023842}]",19851.0,instructions,12,459383,9,61b38ae9363f15657027ed01,61ba5058eb2ce65c2c1cd4a5,5c5badb6a333b50001db9724,61ba5058eb2ce65c2c1cd4a5,"""","""","""","""","""","""",""""
82,23,1,"""",7476.300000011921,survey-multi-choice,13,466865,9,61b38ae9363f15657027ed01,61ba5058eb2ce65c2c1cd4a5,5c5badb6a333b50001db9724,61ba5058eb2ce65c2c1cd4a5,"{""Q0"":""How frequently you think events occur in the real-world."",""Q1"":""By selecting an option from a multiple choice scale.""}","[0,1]","""","""","""","""",""""
83,23,1,"[{""page_index"":0,""viewing_time"":1300.699999988079}]",1301.0,instructions,14,468167,9,61b38ae9363f15657027ed01,61ba5058eb2ce65c2c1cd4a5,5c5badb6a333b50001db9724,61ba5058eb2ce65c2c1cd4a5,"""","""","""","""","""","""",""""
84,23,1,"""",18324.69999998808,survey-likert,15,486496,9,61b38ae9363f15657027ed01,61ba5058eb2ce65c2c1cd4a5,5c5badb6a333b50001db9724,61ba5058eb2ce65c2c1cd4a5,"{""freqX"":0,""freqY_givenX"":1}","[0,1]",test,"If someone walks through a metal detector with a metal watch, then alarms go off. But suppose someone walks through a metal detector with a metal watch, and then alarms do not go off.","""",someone walks through a metal detector with a metal watch,alarms go off.
85,23,1,"""",15701.299999952316,survey-likert,16,502200,9,61b38ae9363f15657027ed01,61ba5058eb2ce65c2c1cd4a5,5c5badb6a333b50001db9724,61ba5058eb2ce65c2c1cd4a5,"{""freqX"":1,""freqY_givenX"":2}","[0,1]",test,"If someone drinks lots of coffee , then they have trouble sleeping. But suppose someone drinks lots of coffee, and then they have do not have trouble sleeping.","""",someone drinks lots of coffee,they have trouble sleeping
86,23,1,"""",14952.80000001192,survey-likert,17,517158,9,61b38ae9363f15657027ed01,61ba5058eb2ce65c2c1cd4a5,5c5badb6a333b50001db9724,61ba5058eb2ce65c2c1cd4a5,"{""freqX"":2,""freqY_givenX"":0}","[0,1]",test,"If a car's gas pedal is pressed all the way down, then the car drives very quickly. But suppose a car's gas pedal is pressed all the way down, and then the car does not drive very quickly.","""",a car's gas pedal is pressed all the way down,it drives very quickly
87,23,1,"""",13588.30000001192,survey-likert,18,530749,9,61b38ae9363f15657027ed01,61ba5058eb2ce65c2c1cd4a5,5c5badb6a333b50001db9724,61ba5058eb2ce65c2c1cd4a5,"{""freqX"":4,""freqY_givenX"":0}","[0,1]",test,"If a piano is dropped from a skyscraper, then the piano shatters. But suppose a piano is dropped from a skyscraper, and then the piano does not shatter.","""",a piano is dropped from a skyscraper,the piano shatters
88,23,1,"""",6831.199999988079,survey-likert,19,537585,9,61b38ae9363f15657027ed01,61ba5058eb2ce65c2c1cd4a5,5c5badb6a333b50001db9724,61ba5058eb2ce65c2c1cd4a5,"{""freqX"":1,""freqY_givenX"":0}","[0,1]",test,"If a light is unplugged, then the light cannot turn on. But suppose a light is unplugged, and then the light can turn on.","""",a light is unplugged,the light cannot turn on
89,23,1,"""",7497.900000035763,survey-likert,20,545086,9,61b38ae9363f15657027ed01,61ba5058eb2ce65c2c1cd4a5,5c5badb6a333b50001db9724,61ba5058eb2ce65c2c1cd4a5,"{""freqX"":3,""freqY_givenX"":1}","[0,1]",test,"If someone does 50 jumping jacks in a room with a tower of dominos, then the tower of dominos falls over. But suppose someone does 50 jumping jacks in a room with a tower of dominos, and then the tower of dominos does not fall over.","""",someone does 50 jumping jacks in a room with a tower of dominos,the tower of dominos falls over.
90,23,1,"""",9599.600000023842,survey-likert,21,554691,9,61b38ae9363f15657027ed01,61ba5058eb2ce65c2c1cd4a5,5c5badb6a333b50001db9724,61ba5058eb2ce65c2c1cd4a5,"{""freqX"":2,""freqY_givenX"":1}","[0,1]",test,"If an apple falls from a tree, then it hits the ground. But suppose an apple falls from a tree, and then it does not hit the ground.","""",an apple falls from a tree,the apple hits the ground
91,23,1,"""",10324.0,survey-text,22,565023,9,61b38ae9363f15657027ed01,61ba5058eb2ce65c2c1cd4a5,5c5badb6a333b50001db9724,61ba5058eb2ce65c2c1cd4a5,"{""Q0"":"",""Q1"":"",""Q2"":"",""Q3"":"",""Q4"":""}","""","""","""","""","""",""""
92,25,3,"[{""page_index"":0,""viewing_time"":9783.800000011921},{""page_index"":1,""viewing_time"":8536.300000011921},{""page_index"":2,""viewing_time"":13921},{""page_index"":3,""viewing_time"":9213}]",41456.5,instructions,0,41466,22,61b38ae9363f15657027ed01,61ba5497dece06e441bb204d,5f2755111425fa5484311fc4,61ba5497dece06e441bb204d,"""","""","""","""","""","""",""""
93,25,3,"""",49793.69999998808,survey-text,1,91296,22,61b38ae9363f15657027ed01,61ba5497dece06e441bb204d,5f2755111425fa5484311fc4,61ba5497dece06e441bb204d,"{""Q0"":""I commit to do my best to try to write high-quality explanations. I recognize that if I do not try my best to generate an explanation for each situation, I may not be paid.""}","""","""","""","""","""",""""
94,25,3,"[{""page_index"":0,""viewing_time"":2931.600000023842}]",2932.0,instructions,2,94230,22,61b38ae9363f15657027ed01,61ba5497dece06e441bb204d,5f2755111425fa5484311fc4,61ba5497dece06e441bb204d,"""","""","""","""","""","""",""""
95,25,3,"""",14096.0,survey-multi-choice,3,108332,22,61b38ae9363f15657027ed01,61ba5497dece06e441bb204d,5f2755111425fa5484311fc4,61ba5497dece06e441bb204d,"{""Q0"":""Explanations for events."",""Q1"":""By writing text."",""Q2"":""Not making a good attempt to write a high-quality answer for each task.""}","[0,1,2]","""","""","""","""",""""
96,25,3,"[{""page_index"":0,""viewing_time"":1524.6000000238419}]",1525.199999988079,instructions,4,109865,22,61b38ae9363f15657027ed01,61ba5497dece06e441bb204d,5f2755111425fa5484311fc4,61ba5497dece06e441bb204d,"""","""","""","""","""","""",""""
97,25,3,"""",49875.89999997616,survey-text,5,159749,22,61b38ae9363f15657027ed01,61ba5497dece06e441bb204d,5f2755111425fa5484311fc4,61ba5497dece06e441bb204d,"{""Explanation"":""This could have happened because the cymbal was stuck on something that didn't allow it to move freely and vibrate sound.""}","""",test,"If a cymbal is hit with a drum stick, then it clangs. But suppose a cymbal is hit with a drum stick, and then it does not clang.","generate, unconstrained","""",""""
98,25,3,"""",49125.5,survey-text,6,208880,22,61b38ae9363f15657027ed01,61ba5497dece06e441bb204d,5f2755111425fa5484311fc4,61ba5497dece06e441bb204d,"{""Explanation"":""This could have happened because they lessened the fall on their arm by also falling onto their butt at the same time.""}","""",test,"If someone falls from a high height onto their outstretched arm, then they will break their wrist. But suppose someone falls from a high height onto their outstretched arm, and then they do not break their wrist.","generate, unconstrained","""",""""
99,25,3,"""",39010.19999998808,survey-text,7,247898,22,61b38ae9363f15657027ed01,61ba5497dece06e441bb204d,5f2755111425fa5484311fc4,61ba5497dece06e441bb204d,"{""Explanation"":""This could have happened because the carpet is coated with a water/stain resistant film.""}","""",test,"If a blue slushie is spilled on a carpet, then the carpet is stained blue. But suppose a blue slushie is spilled on a carpet, and then the carpet is not stained blue.","generate, unconstrained","""",""""
100,25,3,"""",38166.89999997616,survey-text,8,286070,22,61b38ae9363f15657027ed01,61ba5497dece06e441bb204d,5f2755111425fa5484311fc4,61ba5497dece06e441bb204d,"{""Explanation"":""This could have happened because the person was used to the smoke from several days of the wildfire in their area.""}","""",test,"If a person breathes in wildfire smoke, then they cough. But suppose a person breathes in wildfire smoke, and then they do not cough.","generate, unconstrained","""",""""
101,25,3,"""",33980.69999998808,survey-text,9,320058,22,61b38ae9363f15657027ed01,61ba5497dece06e441bb204d,5f2755111425fa5484311fc4,61ba5497dece06e441bb204d,"{""Explanation"":""This could have happened because someone put something else into the water that caused it to lower its freezing point.""}","""",test,"If water is put in the freezer, then it turns into ice. But suppose water is put in the freezer, and then it does not turn into ice.","generate, unconstrained","""",""""
102,25,3,"""",15348.899999976158,survey-text,10,335413,22,61b38ae9363f15657027ed01,61ba5497dece06e441bb204d,5f2755111425fa5484311fc4,61ba5497dece06e441bb204d,"{""Explanation"":""This could have happened because the meteor was very small.""}","""",test,"If a meteor hits the ground, then a crater is made. But suppose a meteor hits the ground, and then a crater is not made.","generate, unconstrained","""",""""
103,25,3,"""",235719.60000002384,survey-text,11,571139,22,61b38ae9363f15657027ed01,61ba5497dece06e441bb204d,5f2755111425fa5484311fc4,61ba5497dece06e441bb204d,"{""Explanation"":""This could have happened because the animals found a crafty way to open the zoo gates.""}","""",test,"If the the gates in a zoo are closed, then the zoo animals do not escape. But suppose the gates in a zoo are closed, and then the animals do escape.","generate, unconstrained","""",""""
104,25,3,"[{""page_index"":0,""viewing_time"":1401.8999999761581},{""page_index"":1,""viewing_time"":6938}]",8340.399999976158,instructions,12,579480,22,61b38ae9363f15657027ed01,61ba5497dece06e441bb204d,5f2755111425fa5484311fc4,61ba5497dece06e441bb204d,"""","""","""","""","""","""",""""
105,25,3,"""",22628.69999998808,survey-multi-choice,13,602114,22,61b38ae9363f15657027ed01,61ba5497dece06e441bb204d,5f2755111425fa5484311fc4,61ba5497dece06e441bb204d,"{""Q0"":""How frequently you think events occur in the real-world."",""Q1"":""By selecting an option from a multiple choice scale.""}","[0,1]","""","""","""","""",""""
106,25,3,"[{""page_index"":0,""viewing_time"":1235.6000000238419}]",1236.0,instructions,14,603356,22,61b38ae9363f15657027ed01,61ba5497dece06e441bb204d,5f2755111425fa5484311fc4,61ba5497dece06e441bb204d,"""","""","""","""","""","""",""""
107,25,3,"""",27754.89999997616,survey-likert,15,631117,22,61b38ae9363f15657027ed01,61ba5497dece06e441bb204d,5f2755111425fa5484311fc4,61ba5497dece06e441bb204d,"{""freqX"":1,""freqY_givenX"":1}","[0,1]",test,"If a cymbal is hit with a drum stick, then it clangs. But suppose a cymbal is hit with a drum stick, and then it does not clang.","""",a cymbal is hit with a drum stick,it clangs
108,25,3,"""",20729.89999997616,survey-likert,16,651856,22,61b38ae9363f15657027ed01,61ba5497dece06e441bb204d,5f2755111425fa5484311fc4,61ba5497dece06e441bb204d,"{""freqX"":2,""freqY_givenX"":3}","[0,1]",test,"If someone falls from a high height onto their outstretched arm, then they will break their wrist. But suppose someone falls from a high height onto their outstretched arm, and then they do not break their wrist.","""",someone falls from a high height onto their outstretched arm,they break their wrist
109,25,3,"""",12348.899999976158,survey-likert,17,664216,22,61b38ae9363f15657027ed01,61ba5497dece06e441bb204d,5f2755111425fa5484311fc4,61ba5497dece06e441bb204d,"{""freqX"":2,""freqY_givenX"":1}","[0,1]",test,"If a blue slushie is spilled on a carpet, then the carpet is stained blue. But suppose a blue slushie is spilled on a carpet, and then the carpet is not stained blue.","""",a blue slushie is spilled on a carpet,the carpet is stained blue
110,25,3,"""",7661.0,survey-likert,18,671887,22,61b38ae9363f15657027ed01,61ba5497dece06e441bb204d,5f2755111425fa5484311fc4,61ba5497dece06e441bb204d,"{""freqX"":2,""freqY_givenX"":2}","[0,1]",test,"If a person breathes in wildfire smoke, then they cough. But suppose a person breathes in wildfire smoke, and then they do not cough.","""",a person breathes in wildfire smoke,they cough
111,25,3,"""",6621.599999964237,survey-likert,19,678520,22,61b38ae9363f15657027ed01,61ba5497dece06e441bb204d,5f2755111425fa5484311fc4,61ba5497dece06e441bb204d,"{""freqX"":1,""freqY_givenX"":1}","[0,1]",test,"If water is put in the freezer, then it turns into ice. But suppose water is put in the freezer, and then it does not turn into ice.","""",water is put in the freezer,it turns into ice
112,25,3,"""",20162.400000035763,survey-likert,20,698692,22,61b38ae9363f15657027ed01,61ba5497dece06e441bb204d,5f2755111425fa5484311fc4,61ba5497dece06e441bb204d,"{""freqX"":5,""freqY_givenX"":3}","[0,1]",test,"If a meteor hits the ground, then a crater is made. But suppose a meteor hits the ground, and then a crater is not made.","""",a meteor hits the ground,a crater is made
113,25,3,"""",23257.19999998808,survey-likert,21,721960,22,61b38ae9363f15657027ed01,61ba5497dece06e441bb204d,5f2755111425fa5484311fc4,61ba5497dece06e441bb204d,"{""freqX"":2,""freqY_givenX"":0}","[0,1]",test,"If the the gates in a zoo are closed, then the zoo animals do not escape. But suppose the gates in a zoo are closed, and then the animals do escape.","""",the gates in a zoo are closed,the zoo animals do not escape
114,25,3,"""",18020.0,survey-text,22,739993,22,61b38ae9363f15657027ed01,61ba5497dece06e441bb204d,5f2755111425fa5484311fc4,61ba5497dece06e441bb204d,"{""Q0"":""10"",""Q1"":""3"",""Q2"":""3"",""Q3"":""3"",""Q4"":""}","""","""","""","""","""",""""
115,20,1,"[{""page_index"":0,""viewing_time"":13523.599999999627},{""page_index"":1,""viewing_time"":7286.5},{""page_index"":2,""viewing_time"":23816.5},{""page_index"":3,""viewing_time"":10463.599999999627}]",55091.199999999255,instructions,0,55096,33,61b38ae9363f15657027ed01,61ba2760fa58ab0d902a0d82,610462fe9130a29881eeb085,61ba2760fa58ab0d902a0d82,"""","""","""","""","""","""",""""
116,20,1,"""",77587.20000000019,survey-text,1,132700,33,61b38ae9363f15657027ed01,61ba2760fa58ab0d902a0d82,610462fe9130a29881eeb085,61ba2760fa58ab0d902a0d82,"{""Q0"":""I commit to do my best to try to write high-quality explanations. I recognize that if I do not try my best to generate an explanation for each situation, I may not be paid.""}","""","""","""","""","""",""""
117,20,1,"[{""page_index"":0,""viewing_time"":3093.4000000003725}]",3094.0,instructions,2,135795,33,61b38ae9363f15657027ed01,61ba2760fa58ab0d902a0d82,610462fe9130a29881eeb085,61ba2760fa58ab0d902a0d82,"""","""","""","""","""","""",""""
118,20,1,"""",15995.5,survey-multi-choice,3,151797,33,61b38ae9363f15657027ed01,61ba2760fa58ab0d902a0d82,610462fe9130a29881eeb085,61ba2760fa58ab0d902a0d82,"{""Q0"":""Explanations for events."",""Q1"":""By writing text."",""Q2"":""Not making a good attempt to write a high-quality answer for each task.""}","[0,1,2]","""","""","""","""",""""
119,20,1,"[{""page_index"":0,""viewing_time"":1995.7999999998137}]",1996.7000000001865,instructions,4,153796,33,61b38ae9363f15657027ed01,61ba2760fa58ab0d902a0d82,610462fe9130a29881eeb085,61ba2760fa58ab0d902a0d82,"""","""","""","""","""","""",""""
120,20,1,"""",131639.5,survey-text,5,285437,33,61b38ae9363f15657027ed01,61ba2760fa58ab0d902a0d82,610462fe9130a29881eeb085,61ba2760fa58ab0d902a0d82,"{""Explanation"":""Someone who drinks coffee may not have trouble sleeping because they might have taken a sleeping pill or a sleeping aid. They also might be very tired because they may not have slept for days so the coffee would not prevent them from sleeping.""}","""",test,"If someone drinks lots of coffee , then they have trouble sleeping. But suppose someone drinks lots of coffee, and then they have do not have trouble sleeping.","generate, unconstrained","""",""""
121,20,1,"""",85313.39999999944,survey-text,6,370755,33,61b38ae9363f15657027ed01,61ba2760fa58ab0d902a0d82,610462fe9130a29881eeb085,61ba2760fa58ab0d902a0d82,"{""Explanation"":""An apple that falls might not hit the ground because it falls into a trampoline/hammock/canopy. An apple that falls also might not hit the ground because someone standing under the tree may catch it.""}","""",test,"If an apple falls from a tree, then it hits the ground. But suppose an apple falls from a tree, and then it does not hit the ground.","generate, unconstrained","""",""""
122,20,1,"""",83617.5,survey-text,7,454378,33,61b38ae9363f15657027ed01,61ba2760fa58ab0d902a0d82,610462fe9130a29881eeb085,61ba2760fa58ab0d902a0d82,"{""Explanation"":""The metal detector may not go off because the detector is broken. Another reason the metal detector may not go off is because someone may have shielded the metal watch with something to prevent it from being detected by the metal detector.""}","""",test,"If someone walks through a metal detector with a metal watch, then alarms go off. But suppose someone walks through a metal detector with a metal watch, and then alarms do not go off.","generate, unconstrained","""",""""
123,20,1,"""",45905.89999999944,survey-text,8,500288,33,61b38ae9363f15657027ed01,61ba2760fa58ab0d902a0d82,610462fe9130a29881eeb085,61ba2760fa58ab0d902a0d82,"{""Explanation"":""The car might not drive quickly because the car gas pedal is broken. Another reason the car might not drive quickly when the gas pedal is pressed all the way down is because the car is stuck in a ditch.""}","""",test,"If a car's gas pedal is pressed all the way down, then the car drives very quickly. But suppose a car's gas pedal is pressed all the way down, and then the car does not drive very quickly.","generate, unconstrained","""",""""
124,20,1,"""",51678.5,survey-text,9,551974,33,61b38ae9363f15657027ed01,61ba2760fa58ab0d902a0d82,610462fe9130a29881eeb085,61ba2760fa58ab0d902a0d82,"{""Explanation"":""The piano may not shatter when dropped from a skyscraper because it is attached to a large crane by rope, and the piano swings suspended in the air like a pendulum.""}","""",test,"If a piano is dropped from a skyscraper, then the piano shatters. But suppose a piano is dropped from a skyscraper, and then the piano does not shatter.","generate, unconstrained","""",""""
125,20,1,"""",62116.40000000037,survey-text,10,614092,33,61b38ae9363f15657027ed01,61ba2760fa58ab0d902a0d82,610462fe9130a29881eeb085,61ba2760fa58ab0d902a0d82,"{""Explanation"":""The tower of dominos may not fall over when someone is doing 50 jumping jacks in the same room because the dominos are glued to the ground. ""}","""",test,"If someone does 50 jumping jacks in a room with a tower of dominos, then the tower of dominos falls over. But suppose someone does 50 jumping jacks in a room with a tower of dominos, and then the tower of dominos does not fall over.","generate, unconstrained","""",""""
126,20,1,"""",43330.10000000056,survey-text,11,657428,33,61b38ae9363f15657027ed01,61ba2760fa58ab0d902a0d82,610462fe9130a29881eeb085,61ba2760fa58ab0d902a0d82,"{""Explanation"":""A light can turn on even when unplugged because it might also be battery-operated. ""}","""",test,"If a light is unplugged, then the light cannot turn on. But suppose a light is unplugged, and then the light can turn on.","generate, unconstrained","""",""""
127,20,1,"[{""page_index"":0,""viewing_time"":2949.0999999996275},{""page_index"":1,""viewing_time"":8047.700000000186}]",10997.799999999814,instructions,12,668428,33,61b38ae9363f15657027ed01,61ba2760fa58ab0d902a0d82,610462fe9130a29881eeb085,61ba2760fa58ab0d902a0d82,"""","""","""","""","""","""",""""
128,20,1,"""",8017.600000000559,survey-multi-choice,13,676451,33,61b38ae9363f15657027ed01,61ba2760fa58ab0d902a0d82,610462fe9130a29881eeb085,61ba2760fa58ab0d902a0d82,"{""Q0"":""How frequently you think events occur in the real-world."",""Q1"":""By moving sliders.""}","[0,1]","""","""","""","""",""""
129,20,1,"[{""page_index"":0,""viewing_time"":1901.9000000003725},{""page_index"":1,""viewing_time"":10576}]",12478.599999999627,instructions,14,688931,33,61b38ae9363f15657027ed01,61ba2760fa58ab0d902a0d82,610462fe9130a29881eeb085,61ba2760fa58ab0d902a0d82,"""","""","""","""","""","""",""""
130,20,1,"""",4362.0,survey-multi-choice,15,693299,33,61b38ae9363f15657027ed01,61ba2760fa58ab0d902a0d82,610462fe9130a29881eeb085,61ba2760fa58ab0d902a0d82,"{""Q0"":""How frequently you think events occur in the real-world."",""Q1"":""By selecting an option from a multiple choice scale.""}","[0,1]","""","""","""","""",""""
131,20,1,"[{""page_index"":0,""viewing_time"":1357.800000000745}]",1358.5,instructions,16,694659,33,61b38ae9363f15657027ed01,61ba2760fa58ab0d902a0d82,610462fe9130a29881eeb085,61ba2760fa58ab0d902a0d82,"""","""","""","""","""","""",""""
132,20,1,"""",35171.59999999963,survey-likert,17,729836,33,61b38ae9363f15657027ed01,61ba2760fa58ab0d902a0d82,610462fe9130a29881eeb085,61ba2760fa58ab0d902a0d82,"{""freqX"":1,""freqY_givenX"":3}","[0,1]",test,"If someone drinks lots of coffee , then they have trouble sleeping. But suppose someone drinks lots of coffee, and then they have do not have trouble sleeping.","""",someone drinks lots of coffee,they have trouble sleeping
133,20,1,"""",16714.799999999814,survey-likert,18,746554,33,61b38ae9363f15657027ed01,61ba2760fa58ab0d902a0d82,610462fe9130a29881eeb085,61ba2760fa58ab0d902a0d82,"{""freqX"":2,""freqY_givenX"":2}","[0,1]",test,"If an apple falls from a tree, then it hits the ground. But suppose an apple falls from a tree, and then it does not hit the ground.","""",an apple falls from a tree,the apple hits the ground
134,20,1,"""",20994.200000000183,survey-likert,19,767553,33,61b38ae9363f15657027ed01,61ba2760fa58ab0d902a0d82,610462fe9130a29881eeb085,61ba2760fa58ab0d902a0d82,"{""freqX"":3,""freqY_givenX"":1}","[0,1]",test,"If someone walks through a metal detector with a metal watch, then alarms go off. But suppose someone walks through a metal detector with a metal watch, and then alarms do not go off.","""",someone walks through a metal detector with a metal watch,alarms go off.
135,20,1,"""",15164.800000000743,survey-likert,20,782721,33,61b38ae9363f15657027ed01,61ba2760fa58ab0d902a0d82,610462fe9130a29881eeb085,61ba2760fa58ab0d902a0d82,"{""freqX"":1,""freqY_givenX"":1}","[0,1]",test,"If a car's gas pedal is pressed all the way down, then the car drives very quickly. But suppose a car's gas pedal is pressed all the way down, and then the car does not drive very quickly.","""",a car's gas pedal is pressed all the way down,it drives very quickly
136,20,1,"""",18512.0,survey-likert,21,801240,33,61b38ae9363f15657027ed01,61ba2760fa58ab0d902a0d82,610462fe9130a29881eeb085,61ba2760fa58ab0d902a0d82,"{""freqX"":5,""freqY_givenX"":0}","[0,1]",test,"If a piano is dropped from a skyscraper, then the piano shatters. But suppose a piano is dropped from a skyscraper, and then the piano does not shatter.","""",a piano is dropped from a skyscraper,the piano shatters
137,20,1,"""",8852.700000000186,survey-likert,22,810097,33,61b38ae9363f15657027ed01,61ba2760fa58ab0d902a0d82,610462fe9130a29881eeb085,61ba2760fa58ab0d902a0d82,"{""freqX"":5,""freqY_givenX"":1}","[0,1]",test,"If someone does 50 jumping jacks in a room with a tower of dominos, then the tower of dominos falls over. But suppose someone does 50 jumping jacks in a room with a tower of dominos, and then the tower of dominos does not fall over.","""",someone does 50 jumping jacks in a room with a tower of dominos,the tower of dominos falls over.
138,20,1,"""",15456.700000000186,survey-likert,23,825561,33,61b38ae9363f15657027ed01,61ba2760fa58ab0d902a0d82,610462fe9130a29881eeb085,61ba2760fa58ab0d902a0d82,"{""freqX"":1,""freqY_givenX"":1}","[0,1]",test,"If a light is unplugged, then the light cannot turn on. But suppose a light is unplugged, and then the light can turn on.","""",a light is unplugged,the light cannot turn on
139,20,1,"""",31617.49999999907,survey-text,24,857182,33,61b38ae9363f15657027ed01,61ba2760fa58ab0d902a0d82,610462fe9130a29881eeb085,61ba2760fa58ab0d902a0d82,"{""Q0"":""10"",""Q1"":""5"",""Q2"":""9"",""Q3"":""6"",""Q4"":""}","""","""","""","""","""",""""
140,32,4,"[{""page_index"":0,""viewing_time"":12228.199999809265},{""page_index"":1,""viewing_time"":89367.59999990463},{""page_index"":2,""viewing_time"":16083.900000095367},{""page_index"":3,""viewing_time"":9720}]",127400.59999990465,instructions,0,127406,13,61b38ae9363f15657027ed01,61ba549f11024c53f8130c34,5d61a3001c84fc001780f4ad,61ba549f11024c53f8130c34,"""","""","""","""","""","""",""""
141,32,4,"""",51321.0,survey-text,1,178744,13,61b38ae9363f15657027ed01,61ba549f11024c53f8130c34,5d61a3001c84fc001780f4ad,61ba549f11024c53f8130c34,"{""Q0"":""I commit to do my best to try to write high-quality explanations. I recognize that if I do not try my best to generate an explanation for each situation, I may not be paid.""}","""","""","""","""","""",""""
142,32,4,"[{""page_index"":0,""viewing_time"":1640.4000000953674}]",1640.7000002861023,instructions,2,180385,13,61b38ae9363f15657027ed01,61ba549f11024c53f8130c34,5d61a3001c84fc001780f4ad,61ba549f11024c53f8130c34,"""","""","""","""","""","""",""""
143,32,4,"""",17021.0,survey-multi-choice,3,197410,13,61b38ae9363f15657027ed01,61ba549f11024c53f8130c34,5d61a3001c84fc001780f4ad,61ba549f11024c53f8130c34,"{""Q0"":""Explanations for events."",""Q1"":""By writing text."",""Q2"":""Not making a good attempt to write a high-quality answer for each task.""}","[0,1,2]","""","""","""","""",""""
144,32,4,"[{""page_index"":0,""viewing_time"":1412.9000000953674}]",1413.3000001907349,instructions,4,198824,13,61b38ae9363f15657027ed01,61ba549f11024c53f8130c34,5d61a3001c84fc001780f4ad,61ba549f11024c53f8130c34,"""","""","""","""","""","""",""""
145,32,4,"""",39967.59999990463,survey-text,5,238798,13,61b38ae9363f15657027ed01,61ba549f11024c53f8130c34,5d61a3001c84fc001780f4ad,61ba549f11024c53f8130c34,"{""Explanation"":""The water bill was not paid for the last few months so the public workers of the city turned off the water flow to this house.""}","""",test,"If someone turns on a bathtub tap, then a bathtub fills with water. But suppose someone turns on a bathtub tap, and then the bathtub does not fill with water.","generate, unconstrained","""",""""
146,32,4,"""",27815.80000019073,survey-text,6,266616,13,61b38ae9363f15657027ed01,61ba549f11024c53f8130c34,5d61a3001c84fc001780f4ad,61ba549f11024c53f8130c34,"{""Explanation"":""The eggs in the carton were hard-boiled.""}","""",test,"If an egg carton is dropped, then the eggs break. But suppose an egg carton is dropped, and then the eggs do not break.","generate, unconstrained","""",""""
147,32,4,"""",41046.40000009537,survey-text,7,307666,13,61b38ae9363f15657027ed01,61ba549f11024c53f8130c34,5d61a3001c84fc001780f4ad,61ba549f11024c53f8130c34,"{""Explanation"":""The fire alarms were not checked by maintenance staff and everyone was in the building would not have enough time to evacuate.""}","""",test,"If a fire in an apartment occurs, then the fire alarm goes off. But suppose a fire in an apartment occurs, and then the fire alarm do not goes off.","generate, unconstrained","""",""""
148,32,4,"""",13230.599999904633,survey-text,8,320899,13,61b38ae9363f15657027ed01,61ba549f11024c53f8130c34,5d61a3001c84fc001780f4ad,61ba549f11024c53f8130c34,"{""Explanation"":""This person is not allergic to poison ivy.""}","""",test,"If someone touches poison ivy, then they get a rash. But suppose touches poison ivy, and then they do not get a rash.","generate, unconstrained","""",""""
149,32,4,"""",28920.599999904636,survey-text,9,349823,13,61b38ae9363f15657027ed01,61ba549f11024c53f8130c34,5d61a3001c84fc001780f4ad,61ba549f11024c53f8130c34,"{""Explanation"":""The person is wearing clothing that covers their knees and therefore only left bruises.""}","""",test,"If someone falls on the sidewalk, then they scrape your knee. But suppose someone falls on the sidewalk, and then they do not scrape their knee.","generate, unconstrained","""",""""
150,32,4,"""",33615.59999990463,survey-text,10,383441,13,61b38ae9363f15657027ed01,61ba549f11024c53f8130c34,5d61a3001c84fc001780f4ad,61ba549f11024c53f8130c34,"{""Explanation"":""The window is bulletproof because it was the glass of the president's car.""}","""",test,"If rocks are thrown at a window, then the window breaks. But suppose rocks are thrown at a window, and then the window does not break.","generate, unconstrained","""",""""
151,32,4,"""",43194.40000009537,survey-text,11,426640,13,61b38ae9363f15657027ed01,61ba549f11024c53f8130c34,5d61a3001c84fc001780f4ad,61ba549f11024c53f8130c34,"{""Explanation"":""The pests do not feed on the crops on the farm. ""}","""",test,"If pest outbreaks occur on a farm, then crops in the farm die. But suppose pest outbreaks occur on a farm, and then crops in the farm do not die.","generate, unconstrained","""",""""
152,32,4,"[{""page_index"":0,""viewing_time"":1563.2000002861023},{""page_index"":1,""viewing_time"":4661.099999904633}]",6224.599999904633,instructions,12,432865,13,61b38ae9363f15657027ed01,61ba549f11024c53f8130c34,5d61a3001c84fc001780f4ad,61ba549f11024c53f8130c34,"""","""","""","""","""","""",""""
153,32,4,"""",7356.599999904633,survey-multi-choice,13,440224,13,61b38ae9363f15657027ed01,61ba549f11024c53f8130c34,5d61a3001c84fc001780f4ad,61ba549f11024c53f8130c34,"{""Q0"":""How frequently you think events occur in the real-world."",""Q1"":""By selecting an option from a multiple choice scale.""}","[0,1]","""","""","""","""",""""
154,32,4,"[{""page_index"":0,""viewing_time"":913.8000001907349}]",914.3000001907347,instructions,14,441139,13,61b38ae9363f15657027ed01,61ba549f11024c53f8130c34,5d61a3001c84fc001780f4ad,61ba549f11024c53f8130c34,"""","""","""","""","""","""",""""
155,32,4,"""",17845.89999961853,survey-likert,15,458988,13,61b38ae9363f15657027ed01,61ba549f11024c53f8130c34,5d61a3001c84fc001780f4ad,61ba549f11024c53f8130c34,"{""freqX"":2,""freqY_givenX"":1}","[0,1]",test,"If someone turns on a bathtub tap, then a bathtub fills with water. But suppose someone turns on a bathtub tap, and then the bathtub does not fill with water.","""",someone turns on a bathtub tap,the bathtub fills with water
156,32,4,"""",7482.199999809265,survey-likert,16,466473,13,61b38ae9363f15657027ed01,61ba549f11024c53f8130c34,5d61a3001c84fc001780f4ad,61ba549f11024c53f8130c34,"{""freqX"":3,""freqY_givenX"":6}","[0,1]",test,"If an egg carton is dropped, then the eggs break. But suppose an egg carton is dropped, and then the eggs do not break.","""",an egg carton is dropped,the eggs break
157,32,4,"""",16014.799999713898,survey-likert,17,482491,13,61b38ae9363f15657027ed01,61ba549f11024c53f8130c34,5d61a3001c84fc001780f4ad,61ba549f11024c53f8130c34,"{""freqX"":2,""freqY_givenX"":5}","[0,1]",test,"If a fire in an apartment occurs, then the fire alarm goes off. But suppose a fire in an apartment occurs, and then the fire alarm do not goes off.","""",a fire in an apartment occurs,the fire alarm goes off
158,32,4,"""",14707.099999904633,survey-likert,18,497200,13,61b38ae9363f15657027ed01,61ba549f11024c53f8130c34,5d61a3001c84fc001780f4ad,61ba549f11024c53f8130c34,"{""freqX"":3,""freqY_givenX"":2}","[0,1]",test,"If someone touches poison ivy, then they get a rash. But suppose touches poison ivy, and then they do not get a rash.","""","someone touches poison ivy,",they get a rash
159,32,4,"""",18224.099999904636,survey-likert,19,515427,13,61b38ae9363f15657027ed01,61ba549f11024c53f8130c34,5d61a3001c84fc001780f4ad,61ba549f11024c53f8130c34,"{""freqX"":1,""freqY_givenX"":2}","[0,1]",test,"If someone falls on the sidewalk, then they scrape your knee. But suppose someone falls on the sidewalk, and then they do not scrape their knee.","""",someone falls on the sidewalk,they scrape their knee
160,32,4,"""",18435.299999713898,survey-likert,20,533864,13,61b38ae9363f15657027ed01,61ba549f11024c53f8130c34,5d61a3001c84fc001780f4ad,61ba549f11024c53f8130c34,"{""freqX"":4,""freqY_givenX"":1}","[0,1]",test,"If rocks are thrown at a window, then the window breaks. But suppose rocks are thrown at a window, and then the window does not break.","""",rocks are thrown at a window,the window breaks
161,32,4,"""",10731.699999809263,survey-likert,21,544599,13,61b38ae9363f15657027ed01,61ba549f11024c53f8130c34,5d61a3001c84fc001780f4ad,61ba549f11024c53f8130c34,"{""freqX"":3,""freqY_givenX"":2}","[0,1]",test,"If pest outbreaks occur on a farm, then crops in the farm die. But suppose pest outbreaks occur on a farm, and then crops in the farm do not die.","""",pest outbreaks occur on a farm,crops on the farm die
162,32,4,"""",84797.40000009537,survey-text,22,629403,13,61b38ae9363f15657027ed01,61ba549f11024c53f8130c34,5d61a3001c84fc001780f4ad,61ba549f11024c53f8130c34,"{""Q0"":""10"",""Q1"":""1"",""Q2"":""10"",""Q3"":""1"",""Q4"":""I may have misread one of the phase 2 questions about the fire alarm. If it said how often does the alarm go off if there is a fire, then it should be always, the farthest left answer.""}","""","""","""","""","""",""""
163,1,2,"[{""page_index"":0,""viewing_time"":38652},{""page_index"":1,""viewing_time"":31991},{""page_index"":2,""viewing_time"":45560},{""page_index"":3,""viewing_time"":42232}]",158435.0,instructions,0,158441,28,61b38ae9363f15657027ed01,61ba196c113e468df20ece16,60e9af9a43403df7e5194222,61ba196c113e468df20ece16,"""","""","""","""","""","""",""""
164,1,2,"""",65560.0,survey-text,1,224085,28,61b38ae9363f15657027ed01,61ba196c113e468df20ece16,60e9af9a43403df7e5194222,61ba196c113e468df20ece16,"{""Q0"":""}","""","""","""","""","""",""""
165,1,2,"[{""page_index"":0,""viewing_time"":12617}]",12617.0,instructions,2,236704,28,61b38ae9363f15657027ed01,61ba196c113e468df20ece16,60e9af9a43403df7e5194222,61ba196c113e468df20ece16,"""","""","""","""","""","""",""""
166,1,2,"""",58757.0,survey-multi-choice,3,295467,28,61b38ae9363f15657027ed01,61ba196c113e468df20ece16,60e9af9a43403df7e5194222,61ba196c113e468df20ece16,"{""Q0"":""Explanations for events."",""Q1"":""By writing text."",""Q2"":""Writing high-quality but risky answers for each task.""}","[0,1,2]","""","""","""","""",""""
167,1,2,"[{""page_index"":0,""viewing_time"":18618},{""page_index"":1,""viewing_time"":32200},{""page_index"":2,""viewing_time"":19825},{""page_index"":3,""viewing_time"":23791}]",94434.0,instructions,4,389904,28,61b38ae9363f15657027ed01,61ba196c113e468df20ece16,60e9af9a43403df7e5194222,61ba196c113e468df20ece16,"""","""","""","""","""","""",""""
168,1,2,"""",225254.0,survey-text,5,615171,28,61b38ae9363f15657027ed01,61ba196c113e468df20ece16,60e9af9a43403df7e5194222,61ba196c113e468df20ece16,"{""Q0"":""I commit to do my best to try to write high-quality explanations. I recognize that if I do not try my best to generate an explanation for each situation, I may not be paid.""}","""","""","""","""","""",""""
169,1,2,"[{""page_index"":0,""viewing_time"":4372}]",4372.0,instructions,6,619544,28,61b38ae9363f15657027ed01,61ba196c113e468df20ece16,60e9af9a43403df7e5194222,61ba196c113e468df20ece16,"""","""","""","""","""","""",""""
170,1,2,"""",14157.0,survey-multi-choice,7,633707,28,61b38ae9363f15657027ed01,61ba196c113e468df20ece16,60e9af9a43403df7e5194222,61ba196c113e468df20ece16,"{""Q0"":""Explanations for events."",""Q1"":""By writing text."",""Q2"":""Writing high-quality but risky answers for each task.""}","[0,1,2]","""","""","""","""",""""
171,1,2,"[{""page_index"":0,""viewing_time"":7659},{""page_index"":1,""viewing_time"":10961},{""page_index"":2,""viewing_time"":5327},{""page_index"":3,""viewing_time"":2040}]",25988.0,instructions,8,659696,28,61b38ae9363f15657027ed01,61ba196c113e468df20ece16,60e9af9a43403df7e5194222,61ba196c113e468df20ece16,"""","""","""","""","""","""",""""
172,1,2,"""",166127.0,survey-text,9,825835,28,61b38ae9363f15657027ed01,61ba196c113e468df20ece16,60e9af9a43403df7e5194222,61ba196c113e468df20ece16,"{""Q0"":""I commit to do my best try to write high-quality explanations. I recognize that if I do not try my best to generate an explanation for each situation, I may not be paid.""}","""","""","""","""","""",""""
173,1,2,"[{""page_index"":0,""viewing_time"":1963}]",1963.0,instructions,10,827800,28,61b38ae9363f15657027ed01,61ba196c113e468df20ece16,60e9af9a43403df7e5194222,61ba196c113e468df20ece16,"""","""","""","""","""","""",""""
174,1,2,"""",61758.0,survey-multi-choice,11,889562,28,61b38ae9363f15657027ed01,61ba196c113e468df20ece16,60e9af9a43403df7e5194222,61ba196c113e468df20ece16,"{""Q0"":""Explanations for events."",""Q1"":""By writing text."",""Q2"":""Not making a good attempt to write a high-quality answer for each task.""}","[0,1,2]","""","""","""","""",""""
175,1,2,"[{""page_index"":0,""viewing_time"":3859}]",3861.0,instructions,12,893424,28,61b38ae9363f15657027ed01,61ba196c113e468df20ece16,60e9af9a43403df7e5194222,61ba196c113e468df20ece16,"""","""","""","""","""","""",""""
176,1,2,"""",140816.0,survey-text,13,1034282,28,61b38ae9363f15657027ed01,61ba196c113e468df20ece16,60e9af9a43403df7e5194222,61ba196c113e468df20ece16,"{""Explanation"":""The cat may be dead.""}","""",test,"If a cat's tail is pulled, then the cat yowls. But suppose a cat's tail is pulled, and then the cat does not yowl.","generate, unconstrained","""",""""
177,1,2,"""",87555.0,survey-text,14,1121843,28,61b38ae9363f15657027ed01,61ba196c113e468df20ece16,60e9af9a43403df7e5194222,61ba196c113e468df20ece16,"{""Explanation"":""It wasn't a very strong one.""}","""",test,"If a severe earthquake occurs near an office building, then the shelves in the office fall down. But suppose a severe earthquake occurs near an office building, and then the shelves in the office do not fall down.","generate, unconstrained","""",""""
178,1,2,"""",79821.0,survey-text,15,1201675,28,61b38ae9363f15657027ed01,61ba196c113e468df20ece16,60e9af9a43403df7e5194222,61ba196c113e468df20ece16,"{""Explanation"":""It had a canopy over it.""}","""",test,"If it rains over grass, then the grass becomes wet. But suppose it rains, and then the grass does not become wet.","generate, unconstrained","""",""""
179,1,2,"""",56489.0,survey-text,16,1258170,28,61b38ae9363f15657027ed01,61ba196c113e468df20ece16,60e9af9a43403df7e5194222,61ba196c113e468df20ece16,"{""Explanation"":""The lock was broken.""}","""",test,"If a door is locked with a bolt, then it cannot be opened. But suppose a door is locked with a bolt, and then it is opened.","generate, unconstrained","""",""""
180,1,2,"""",105965.0,survey-text,17,1364145,28,61b38ae9363f15657027ed01,61ba196c113e468df20ece16,60e9af9a43403df7e5194222,61ba196c113e468df20ece16,"{""Explanation"":""It had state-of-the-art technology. ""}","""",test,"If a confetti cannon is fired, then it produces a loud noise. But suppose a confetti cannon is fired, and then it does not produce a loud noise.","generate, unconstrained","""",""""
181,1,2,"""",84818.0,survey-text,18,1448969,28,61b38ae9363f15657027ed01,61ba196c113e468df20ece16,60e9af9a43403df7e5194222,61ba196c113e468df20ece16,"{""Explanation"":""It was decorated with advanced technology.""}","""",test,"If the weather gets hotter around a snowman in a backyard, then the snowman melts. But suppose the weather gets hotter around a snowman in a backyard, and then the snowman does not melt.","generate, unconstrained","""",""""
182,1,2,"""",77988.0,survey-text,19,1526969,28,61b38ae9363f15657027ed01,61ba196c113e468df20ece16,60e9af9a43403df7e5194222,61ba196c113e468df20ece16,"{""Explanation"":""It can be a desert plant.""}","""",test,"If plants are not watered, then they die. But suppose plants are not watered, and then they do not die.","generate, unconstrained","""",""""
183,1,2,"[{""page_index"":0,""viewing_time"":16621},{""page_index"":1,""viewing_time"":41496}]",58117.0,instructions,20,1585087,28,61b38ae9363f15657027ed01,61ba196c113e468df20ece16,60e9af9a43403df7e5194222,61ba196c113e468df20ece16,"""","""","""","""","""","""",""""
184,1,2,"""",64373.0,survey-multi-choice,21,1649465,28,61b38ae9363f15657027ed01,61ba196c113e468df20ece16,60e9af9a43403df7e5194222,61ba196c113e468df20ece16,"{""Q0"":""How frequently you think events occur in the real-world."",""Q1"":""By selecting an option from a multiple choice scale.""}","[0,1]","""","""","""","""",""""
185,1,2,"[{""page_index"":0,""viewing_time"":5091}]",5092.0,instructions,22,1654559,28,61b38ae9363f15657027ed01,61ba196c113e468df20ece16,60e9af9a43403df7e5194222,61ba196c113e468df20ece16,"""","""","""","""","""","""",""""
186,1,2,"""",49157.0,survey-likert,23,1703721,28,61b38ae9363f15657027ed01,61ba196c113e468df20ece16,60e9af9a43403df7e5194222,61ba196c113e468df20ece16,"{""freqX"":3,""freqY_givenX"":2}","[0,1]",test,"If a cat's tail is pulled, then the cat yowls. But suppose a cat's tail is pulled, and then the cat does not yowl.","""",a cat's tail is pulled,the cat yowls
187,1,2,"""",63204.0,survey-likert,24,1766929,28,61b38ae9363f15657027ed01,61ba196c113e468df20ece16,60e9af9a43403df7e5194222,61ba196c113e468df20ece16,"{""freqX"":1,""freqY_givenX"":1}","[0,1]",test,"If a severe earthquake occurs near an office building, then the shelves in the office fall down. But suppose a severe earthquake occurs near an office building, and then the shelves in the office do not fall down.","""",a severe earthquake occurs near an office building,the shelves in the office fall down
188,1,2,"""",21450.0,survey-likert,25,1788386,28,61b38ae9363f15657027ed01,61ba196c113e468df20ece16,60e9af9a43403df7e5194222,61ba196c113e468df20ece16,"{""freqX"":1,""freqY_givenX"":2}","[0,1]",test,"If it rains over grass, then the grass becomes wet. But suppose it rains, and then the grass does not become wet.","""",it rains over grass,the grass gets wet
189,1,2,"""",56404.0,survey-likert,26,1844793,28,61b38ae9363f15657027ed01,61ba196c113e468df20ece16,60e9af9a43403df7e5194222,61ba196c113e468df20ece16,"{""freqX"":0,""freqY_givenX"":1}","[0,1]",test,"If a door is locked with a bolt, then it cannot be opened. But suppose a door is locked with a bolt, and then it is opened.","""",a door is locked with a bolt,the door cannot be opened
190,1,2,"""",77801.0,survey-likert,27,1922601,28,61b38ae9363f15657027ed01,61ba196c113e468df20ece16,60e9af9a43403df7e5194222,61ba196c113e468df20ece16,"{""freqX"":3,""freqY_givenX"":0}","[0,1]",test,"If a confetti cannon is fired, then it produces a loud noise. But suppose a confetti cannon is fired, and then it does not produce a loud noise.","""",a confetti cannon is fired,it produces a loud noise
191,1,2,"""",43156.0,survey-likert,28,1965761,28,61b38ae9363f15657027ed01,61ba196c113e468df20ece16,60e9af9a43403df7e5194222,61ba196c113e468df20ece16,"{""freqX"":2,""freqY_givenX"":0}","[0,1]",test,"If the weather gets hotter around a snowman in a backyard, then the snowman melts. But suppose the weather gets hotter around a snowman in a backyard, and then the snowman does not melt.","""",the weather gets hotter around a snowman in a backyard,the snowman melts
192,1,2,"""",63681.0,survey-likert,29,2029449,28,61b38ae9363f15657027ed01,61ba196c113e468df20ece16,60e9af9a43403df7e5194222,61ba196c113e468df20ece16,"{""freqX"":3,""freqY_givenX"":1}","[0,1]",test,"If plants are not watered, then they die. But suppose plants are not watered, and then they do not die.","""",plants are not watered,they die
193,1,2,"""",93275.0,survey-text,30,2122731,28,61b38ae9363f15657027ed01,61ba196c113e468df20ece16,60e9af9a43403df7e5194222,61ba196c113e468df20ece16,"{""Q0"":""10"",""Q1"":""8"",""Q2"":""10"",""Q3"":""10"",""Q4"":""No comments thanks.""}","""","""","""","""","""",""""
194,19,2,"[{""page_index"":0,""viewing_time"":9687.70000000298},{""page_index"":1,""viewing_time"":55213.69999999553},{""page_index"":2,""viewing_time"":29604.10000000149},{""page_index"":3,""viewing_time"":17682.10000000149}]",112190.89999999852,instructions,0,112230,31,61b38ae9363f15657027ed01,61ba27572ee87ac4441d986c,6102e27b1a79b18fcab0ffe3,61ba27572ee87ac4441d986c,"""","""","""","""","""","""",""""
195,19,2,"""",127411.09999999404,survey-text,1,239697,31,61b38ae9363f15657027ed01,61ba27572ee87ac4441d986c,6102e27b1a79b18fcab0ffe3,61ba27572ee87ac4441d986c,"{""Q0"":""I commit to do my best to try to write high-quality explanations. I recognize if I do not try my best to generate an explanation for each situation, I may not be paid.""}","""","""","""","""","""",""""
196,19,2,"[{""page_index"":0,""viewing_time"":3801.2000000029802}]",3802.900000005961,instructions,2,243507,31,61b38ae9363f15657027ed01,61ba27572ee87ac4441d986c,6102e27b1a79b18fcab0ffe3,61ba27572ee87ac4441d986c,"""","""","""","""","""","""",""""
197,19,2,"""",31791.60000000149,survey-multi-choice,3,275313,31,61b38ae9363f15657027ed01,61ba27572ee87ac4441d986c,6102e27b1a79b18fcab0ffe3,61ba27572ee87ac4441d986c,"{""Q0"":""Explanations for events."",""Q1"":""By writing text."",""Q2"":""Not making a good attempt to write a high-quality answer for each task.""}","[0,1,2]","""","""","""","""",""""
198,19,2,"[{""page_index"":0,""viewing_time"":4260.60000000149}]",4261.5,instructions,4,279582,31,61b38ae9363f15657027ed01,61ba27572ee87ac4441d986c,6102e27b1a79b18fcab0ffe3,61ba27572ee87ac4441d986c,"""","""","""","""","""","""",""""
199,19,2,"""",70000.89999999851,survey-text,5,349611,31,61b38ae9363f15657027ed01,61ba27572ee87ac4441d986c,6102e27b1a79b18fcab0ffe3,61ba27572ee87ac4441d986c,"{""Explanation"":""This could have happened because the weather got hotter, but not hot enough to melt the snowman.""}","""",test,"If the weather gets hotter around a snowman in a backyard, then the snowman melts. But suppose the weather gets hotter around a snowman in a backyard, and then the snowman does not melt.","generate, unconstrained","""",""""
200,19,2,"""",47269.39999999851,survey-text,6,396911,31,61b38ae9363f15657027ed01,61ba27572ee87ac4441d986c,6102e27b1a79b18fcab0ffe3,61ba27572ee87ac4441d986c,"{""Explanation"":""This could have happened because the confetti canon did not have enough confetti in it.""}","""",test,"If a confetti cannon is fired, then it produces a loud noise. But suppose a confetti cannon is fired, and then it does not produce a loud noise.","generate, unconstrained","""",""""
201,19,2,"""",27976.0,survey-text,7,424924,31,61b38ae9363f15657027ed01,61ba27572ee87ac4441d986c,6102e27b1a79b18fcab0ffe3,61ba27572ee87ac4441d986c,"{""Explanation"":""This could have happened because there is an outdoor tent set up.""}","""",test,"If it rains over grass, then the grass becomes wet. But suppose it rains, and then the grass does not become wet.","generate, unconstrained","""",""""
202,19,2,"""",36166.90000000596,survey-text,8,461114,31,61b38ae9363f15657027ed01,61ba27572ee87ac4441d986c,6102e27b1a79b18fcab0ffe3,61ba27572ee87ac4441d986c,"{""Explanation"":""This could have happened because the cat was asleep and didn't feel it's tail being pulled.""}","""",test,"If a cat's tail is pulled, then the cat yowls. But suppose a cat's tail is pulled, and then the cat does not yowl.","generate, unconstrained","""",""""
203,19,2,"""",32857.20000000298,survey-text,9,494013,31,61b38ae9363f15657027ed01,61ba27572ee87ac4441d986c,6102e27b1a79b18fcab0ffe3,61ba27572ee87ac4441d986c,"{""Explanation"":""This could have happened because this type of plant does not need as much water as a regular plant.""}","""",test,"If plants are not watered, then they die. But suppose plants are not watered, and then they do not die.","generate, unconstrained","""",""""
204,19,2,"""",32574.0,survey-text,10,526610,31,61b38ae9363f15657027ed01,61ba27572ee87ac4441d986c,6102e27b1a79b18fcab0ffe3,61ba27572ee87ac4441d986c,"{""Explanation"":""This could have happened because the shelves were extra sturdy and bolted in.""}","""",test,"If a severe earthquake occurs near an office building, then the shelves in the office fall down. But suppose a severe earthquake occurs near an office building, and then the shelves in the office do not fall down.","generate, unconstrained","""",""""
205,19,2,"""",34173.0,survey-text,11,560821,31,61b38ae9363f15657027ed01,61ba27572ee87ac4441d986c,6102e27b1a79b18fcab0ffe3,61ba27572ee87ac4441d986c,"{""Explanation"":""This could have happened because the bolt was weak or broken.""}","""",test,"If a door is locked with a bolt, then it cannot be opened. But suppose a door is locked with a bolt, and then it is opened.","generate, unconstrained","""",""""
206,19,2,"[{""page_index"":0,""viewing_time"":5999.89999999851},{""page_index"":1,""viewing_time"":22337.10000000149}]",28340.60000000149,instructions,12,589187,31,61b38ae9363f15657027ed01,61ba27572ee87ac4441d986c,6102e27b1a79b18fcab0ffe3,61ba27572ee87ac4441d986c,"""","""","""","""","""","""",""""
207,19,2,"""",10789.5,survey-multi-choice,13,599989,31,61b38ae9363f15657027ed01,61ba27572ee87ac4441d986c,6102e27b1a79b18fcab0ffe3,61ba27572ee87ac4441d986c,"{""Q0"":""How frequently you think events occur in the real-world."",""Q1"":""By selecting an option from a multiple choice scale.""}","[0,1]","""","""","""","""",""""
208,19,2,"[{""page_index"":0,""viewing_time"":1661.5}]",1662.7999999970198,instructions,14,601659,31,61b38ae9363f15657027ed01,61ba27572ee87ac4441d986c,6102e27b1a79b18fcab0ffe3,61ba27572ee87ac4441d986c,"""","""","""","""","""","""",""""
209,19,2,"""",51710.0,survey-likert,15,653383,31,61b38ae9363f15657027ed01,61ba27572ee87ac4441d986c,6102e27b1a79b18fcab0ffe3,61ba27572ee87ac4441d986c,"{""freqX"":2,""freqY_givenX"":1}","[0,1]",test,"If the weather gets hotter around a snowman in a backyard, then the snowman melts. But suppose the weather gets hotter around a snowman in a backyard, and then the snowman does not melt.","""",the weather gets hotter around a snowman in a backyard,the snowman melts
210,19,2,"""",36442.09999999404,survey-likert,16,689836,31,61b38ae9363f15657027ed01,61ba27572ee87ac4441d986c,6102e27b1a79b18fcab0ffe3,61ba27572ee87ac4441d986c,"{""freqX"":3,""freqY_givenX"":1}","[0,1]",test,"If a confetti cannon is fired, then it produces a loud noise. But suppose a confetti cannon is fired, and then it does not produce a loud noise.","""",a confetti cannon is fired,it produces a loud noise
211,19,2,"""",9516.0,survey-likert,17,699370,31,61b38ae9363f15657027ed01,61ba27572ee87ac4441d986c,6102e27b1a79b18fcab0ffe3,61ba27572ee87ac4441d986c,"{""freqX"":1,""freqY_givenX"":1}","[0,1]",test,"If it rains over grass, then the grass becomes wet. But suppose it rains, and then the grass does not become wet.","""",it rains over grass,the grass gets wet
212,19,2,"""",21939.30000000447,survey-likert,18,721320,31,61b38ae9363f15657027ed01,61ba27572ee87ac4441d986c,6102e27b1a79b18fcab0ffe3,61ba27572ee87ac4441d986c,"{""freqX"":2,""freqY_givenX"":3}","[0,1]",test,"If a cat's tail is pulled, then the cat yowls. But suppose a cat's tail is pulled, and then the cat does not yowl.","""",a cat's tail is pulled,the cat yowls
213,19,2,"""",14943.89999999851,survey-likert,19,736280,31,61b38ae9363f15657027ed01,61ba27572ee87ac4441d986c,6102e27b1a79b18fcab0ffe3,61ba27572ee87ac4441d986c,"{""freqX"":1,""freqY_givenX"":1}","[0,1]",test,"If plants are not watered, then they die. But suppose plants are not watered, and then they do not die.","""",plants are not watered,they die
214,19,2,"""",16406.39999999851,survey-likert,20,752698,31,61b38ae9363f15657027ed01,61ba27572ee87ac4441d986c,6102e27b1a79b18fcab0ffe3,61ba27572ee87ac4441d986c,"{""freqX"":3,""freqY_givenX"":2}","[0,1]",test,"If a severe earthquake occurs near an office building, then the shelves in the office fall down. But suppose a severe earthquake occurs near an office building, and then the shelves in the office do not fall down.","""",a severe earthquake occurs near an office building,the shelves in the office fall down
215,19,2,"""",18975.39999999851,survey-likert,21,771695,31,61b38ae9363f15657027ed01,61ba27572ee87ac4441d986c,6102e27b1a79b18fcab0ffe3,61ba27572ee87ac4441d986c,"{""freqX"":1,""freqY_givenX"":1}","[0,1]",test,"If a door is locked with a bolt, then it cannot be opened. But suppose a door is locked with a bolt, and then it is opened.","""",a door is locked with a bolt,the door cannot be opened
216,19,2,"""",25874.60000000149,survey-text,22,797588,31,61b38ae9363f15657027ed01,61ba27572ee87ac4441d986c,6102e27b1a79b18fcab0ffe3,61ba27572ee87ac4441d986c,"{""Q0"":""9"",""Q1"":""4"",""Q2"":""5"",""Q3"":""4"",""Q4"":""}","""","""","""","""","""",""""
217,15,1,"[{""page_index"":0,""viewing_time"":31881},{""page_index"":1,""viewing_time"":16892},{""page_index"":2,""viewing_time"":15385},{""page_index"":3,""viewing_time"":11522}]",75680.0,instructions,0,75685,26,61b38ae9363f15657027ed01,61ba272669aa6541177ea555,60121fca666552254559110d,61ba272669aa6541177ea555,"""","""","""","""","""","""",""""
218,15,1,"""",58777.0,survey-text,1,134472,26,61b38ae9363f15657027ed01,61ba272669aa6541177ea555,60121fca666552254559110d,61ba272669aa6541177ea555,"{""Q0"":""I commit to do my best to try to write high-quality explanations. I recognize that if I do not try my best to generate an explanation for each situation, I may not be paid.""}","""","""","""","""","""",""""
219,15,1,"[{""page_index"":0,""viewing_time"":2175}]",2175.0,instructions,2,136648,26,61b38ae9363f15657027ed01,61ba272669aa6541177ea555,60121fca666552254559110d,61ba272669aa6541177ea555,"""","""","""","""","""","""",""""
220,15,1,"""",22392.0,survey-multi-choice,3,159041,26,61b38ae9363f15657027ed01,61ba272669aa6541177ea555,60121fca666552254559110d,61ba272669aa6541177ea555,"{""Q0"":""Explanations for events."",""Q1"":""By writing text."",""Q2"":""Not making a good attempt to write a high-quality answer for each task.""}","[0,1,2]","""","""","""","""",""""
221,15,1,"[{""page_index"":0,""viewing_time"":1945}]",1945.0,instructions,4,160987,26,61b38ae9363f15657027ed01,61ba272669aa6541177ea555,60121fca666552254559110d,61ba272669aa6541177ea555,"""","""","""","""","""","""",""""
222,15,1,"""",118774.0,survey-text,5,279769,26,61b38ae9363f15657027ed01,61ba272669aa6541177ea555,60121fca666552254559110d,61ba272669aa6541177ea555,"{""Explanation"":""some people have built tolerances to coffee intake. A person can drink a lot of coffee and not be affected by the caffeine boost of the coffee that it gives them. They can drink coffee and still go to sleep without any worry that it will keep them up.""}","""",test,"If someone drinks lots of coffee , then they have trouble sleeping. But suppose someone drinks lots of coffee, and then they have do not have trouble sleeping.","generate, unconstrained","""",""""
223,15,1,"""",100982.0,survey-text,6,380755,26,61b38ae9363f15657027ed01,61ba272669aa6541177ea555,60121fca666552254559110d,61ba272669aa6541177ea555,"{""Explanation"":""the Metal detector could be faulty. It could be in need of a repair or maybe something else is impeding it from being able to detect the metal in the watch. Perhaps the watch isnt even really made of metal. It could be made of another substance.""}","""",test,"If someone walks through a metal detector with a metal watch, then alarms go off. But suppose someone walks through a metal detector with a metal watch, and then alarms do not go off.","generate, unconstrained","""",""""
224,15,1,"""",47025.0,survey-text,7,427784,26,61b38ae9363f15657027ed01,61ba272669aa6541177ea555,60121fca666552254559110d,61ba272669aa6541177ea555,"{""Explanation"":""the gas pedal may be faulty and in need of repair.""}","""",test,"If a car's gas pedal is pressed all the way down, then the car drives very quickly. But suppose a car's gas pedal is pressed all the way down, and then the car does not drive very quickly.","generate, unconstrained","""",""""
225,15,1,"""",284907.0,survey-text,8,712698,26,61b38ae9363f15657027ed01,61ba272669aa6541177ea555,60121fca666552254559110d,61ba272669aa6541177ea555,"{""Explanation"":""\nThe speed of the person doing the jumping jacks has a lot to do with if the dominoes fall down or not. If the person doing the jumping jacks is moving at a very high speed, then of course the dominoes will fall over. If the person is moving verv slow and deliberately then the dominoes will not fall. It also has to do with how close or far away they are from  the Dominos.  \n\nIf they are close enough to the dominoes then they will fall. if they are far away from the Dominos and the dominoes can not detect the motion of the person doing the jumping jacks, then they will not fall over.""}","""",test,"If someone does 50 jumping jacks in a room with a tower of dominos, then the tower of dominos falls over. But suppose someone does 50 jumping jacks in a room with a tower of dominos, and then the tower of dominos does not fall over.","generate, unconstrained","""",""""
226,15,1,"""",61881.0,survey-text,9,774582,26,61b38ae9363f15657027ed01,61ba272669aa6541177ea555,60121fca666552254559110d,61ba272669aa6541177ea555,"{""Explanation"":""There could be something that was breaking the fall for the piano.  Something nice and soft like feathers or a mattress.""}","""",test,"If a piano is dropped from a skyscraper, then the piano shatters. But suppose a piano is dropped from a skyscraper, and then the piano does not shatter.","generate, unconstrained","""",""""
227,15,1,"""",77871.0,survey-text,10,852457,26,61b38ae9363f15657027ed01,61ba272669aa6541177ea555,60121fca666552254559110d,61ba272669aa6541177ea555,"{""Explanation"":""there might be someone under the tree who caught the apple in their hand. Or the apple fell into a basket on ground.""}","""",test,"If an apple falls from a tree, then it hits the ground. But suppose an apple falls from a tree, and then it does not hit the ground.","generate, unconstrained","""",""""
228,15,1,"""",260440.0,survey-text,11,1112904,26,61b38ae9363f15657027ed01,61ba272669aa6541177ea555,60121fca666552254559110d,61ba272669aa6541177ea555,"{""Explanation"":""the light may have an internal system where it save energy and can turn on the light for a while without an external energy source.""}","""",test,"If a light is unplugged, then the light cannot turn on. But suppose a light is unplugged, and then the light can turn on.","generate, unconstrained","""",""""
229,15,1,"[{""page_index"":0,""viewing_time"":7454},{""page_index"":1,""viewing_time"":18928}]",26382.0,instructions,12,1139285,26,61b38ae9363f15657027ed01,61ba272669aa6541177ea555,60121fca666552254559110d,61ba272669aa6541177ea555,"""","""","""","""","""","""",""""
230,15,1,"""",6971.0,survey-multi-choice,13,1146259,26,61b38ae9363f15657027ed01,61ba272669aa6541177ea555,60121fca666552254559110d,61ba272669aa6541177ea555,"{""Q0"":""How frequently you think events occur in the real-world."",""Q1"":""By selecting an option from a multiple choice scale.""}","[0,1]","""","""","""","""",""""
231,15,1,"[{""page_index"":0,""viewing_time"":1562}]",1562.0,instructions,14,1147821,26,61b38ae9363f15657027ed01,61ba272669aa6541177ea555,60121fca666552254559110d,61ba272669aa6541177ea555,"""","""","""","""","""","""",""""
232,15,1,"""",24640.0,survey-likert,15,1172464,26,61b38ae9363f15657027ed01,61ba272669aa6541177ea555,60121fca666552254559110d,61ba272669aa6541177ea555,"{""freqX"":2,""freqY_givenX"":1}","[0,1]",test,"If someone drinks lots of coffee , then they have trouble sleeping. But suppose someone drinks lots of coffee, and then they have do not have trouble sleeping.","""",someone drinks lots of coffee,they have trouble sleeping
233,15,1,"""",17550.0,survey-likert,16,1190016,26,61b38ae9363f15657027ed01,61ba272669aa6541177ea555,60121fca666552254559110d,61ba272669aa6541177ea555,"{""freqX"":0,""freqY_givenX"":0}","[0,1]",test,"If someone walks through a metal detector with a metal watch, then alarms go off. But suppose someone walks through a metal detector with a metal watch, and then alarms do not go off.","""",someone walks through a metal detector with a metal watch,alarms go off.
234,15,1,"""",11245.0,survey-likert,17,1201263,26,61b38ae9363f15657027ed01,61ba272669aa6541177ea555,60121fca666552254559110d,61ba272669aa6541177ea555,"{""freqX"":1,""freqY_givenX"":0}","[0,1]",test,"If a car's gas pedal is pressed all the way down, then the car drives very quickly. But suppose a car's gas pedal is pressed all the way down, and then the car does not drive very quickly.","""",a car's gas pedal is pressed all the way down,it drives very quickly
235,15,1,"""",16766.0,survey-likert,18,1218030,26,61b38ae9363f15657027ed01,61ba272669aa6541177ea555,60121fca666552254559110d,61ba272669aa6541177ea555,"{""freqX"":3,""freqY_givenX"":2}","[0,1]",test,"If someone does 50 jumping jacks in a room with a tower of dominos, then the tower of dominos falls over. But suppose someone does 50 jumping jacks in a room with a tower of dominos, and then the tower of dominos does not fall over.","""",someone does 50 jumping jacks in a room with a tower of dominos,the tower of dominos falls over.
236,15,1,"""",11477.0,survey-likert,19,1229509,26,61b38ae9363f15657027ed01,61ba272669aa6541177ea555,60121fca666552254559110d,61ba272669aa6541177ea555,"{""freqX"":5,""freqY_givenX"":5}","[0,1]",test,"If a piano is dropped from a skyscraper, then the piano shatters. But suppose a piano is dropped from a skyscraper, and then the piano does not shatter.","""",a piano is dropped from a skyscraper,the piano shatters
237,15,1,"""",8688.0,survey-likert,20,1238199,26,61b38ae9363f15657027ed01,61ba272669aa6541177ea555,60121fca666552254559110d,61ba272669aa6541177ea555,"{""freqX"":2,""freqY_givenX"":2}","[0,1]",test,"If an apple falls from a tree, then it hits the ground. But suppose an apple falls from a tree, and then it does not hit the ground.","""",an apple falls from a tree,the apple hits the ground
238,15,1,"""",6021.0,survey-likert,21,1244223,26,61b38ae9363f15657027ed01,61ba272669aa6541177ea555,60121fca666552254559110d,61ba272669aa6541177ea555,"{""freqX"":0,""freqY_givenX"":0}","[0,1]",test,"If a light is unplugged, then the light cannot turn on. But suppose a light is unplugged, and then the light can turn on.","""",a light is unplugged,the light cannot turn on
239,15,1,"""",33699.0,survey-text,22,1277926,26,61b38ae9363f15657027ed01,61ba272669aa6541177ea555,60121fca666552254559110d,61ba272669aa6541177ea555,"{""Q0"":""10"",""Q1"":""6"",""Q2"":""9"",""Q3"":""1"",""Q4"":""}","""","""","""","""","""",""""
240,16,4,"[{""page_index"":0,""viewing_time"":40055},{""page_index"":1,""viewing_time"":15291},{""page_index"":2,""viewing_time"":33680},{""page_index"":3,""viewing_time"":20980}]",110006.0,instructions,0,110007,23,61b38ae9363f15657027ed01,61ba274168625d0d389fdfb1,5f2a12f5837dd81e5881b7cc,61ba274168625d0d389fdfb1,"""","""","""","""","""","""",""""
241,16,4,"""",126600.0,survey-text,1,236614,23,61b38ae9363f15657027ed01,61ba274168625d0d389fdfb1,5f2a12f5837dd81e5881b7cc,61ba274168625d0d389fdfb1,"{""Q0"":""I commit to do my best to try to write high-quality explanations. I recognize that if I do not try my best to generate an explanation for each situation, I may not be paid.""}","""","""","""","""","""",""""
242,16,4,"[{""page_index"":0,""viewing_time"":5292}]",5292.0,instructions,2,241908,23,61b38ae9363f15657027ed01,61ba274168625d0d389fdfb1,5f2a12f5837dd81e5881b7cc,61ba274168625d0d389fdfb1,"""","""","""","""","""","""",""""
243,16,4,"""",25601.0,survey-multi-choice,3,267512,23,61b38ae9363f15657027ed01,61ba274168625d0d389fdfb1,5f2a12f5837dd81e5881b7cc,61ba274168625d0d389fdfb1,"{""Q0"":""Explanations for events."",""Q1"":""By writing text."",""Q2"":""Not making a good attempt to write a high-quality answer for each task.""}","[0,1,2]","""","""","""","""",""""
244,16,4,"[{""page_index"":0,""viewing_time"":3951}]",3951.0,instructions,4,271464,23,61b38ae9363f15657027ed01,61ba274168625d0d389fdfb1,5f2a12f5837dd81e5881b7cc,61ba274168625d0d389fdfb1,"""","""","""","""","""","""",""""
245,16,4,"""",94387.0,survey-text,5,365857,23,61b38ae9363f15657027ed01,61ba274168625d0d389fdfb1,5f2a12f5837dd81e5881b7cc,61ba274168625d0d389fdfb1,"{""Explanation"":""a smoke detector is not functioning properly.""}","""",test,"If a fire in an apartment occurs, then the fire alarm goes off. But suppose a fire in an apartment occurs, and then the fire alarm do not goes off.","generate, unconstrained","""",""""
246,16,4,"""",104250.0,survey-text,6,470109,23,61b38ae9363f15657027ed01,61ba274168625d0d389fdfb1,5f2a12f5837dd81e5881b7cc,61ba274168625d0d389fdfb1,"{""Explanation"":""the person does not have an allergy to poison ivy.""}","""",test,"If someone touches poison ivy, then they get a rash. But suppose touches poison ivy, and then they do not get a rash.","generate, unconstrained","""",""""
247,16,4,"""",168827.0,survey-text,7,638940,23,61b38ae9363f15657027ed01,61ba274168625d0d389fdfb1,5f2a12f5837dd81e5881b7cc,61ba274168625d0d389fdfb1,"{""Explanation"":""the egg carton was dropped a very short distance.""}","""",test,"If an egg carton is dropped, then the eggs break. But suppose an egg carton is dropped, and then the eggs do not break.","generate, unconstrained","""",""""
248,16,4,"""",89124.0,survey-text,8,728067,23,61b38ae9363f15657027ed01,61ba274168625d0d389fdfb1,5f2a12f5837dd81e5881b7cc,61ba274168625d0d389fdfb1,"{""Explanation"":""the pest species is not harmful to the farm's crops.""}","""",test,"If pest outbreaks occur on a farm, then crops in the farm die. But suppose pest outbreaks occur on a farm, and then crops in the farm do not die.","generate, unconstrained","""",""""
249,16,4,"""",117445.0,survey-text,9,845515,23,61b38ae9363f15657027ed01,61ba274168625d0d389fdfb1,5f2a12f5837dd81e5881b7cc,61ba274168625d0d389fdfb1,"{""Explanation"":""the home's water supply valve has been turned off.""}","""",test,"If someone turns on a bathtub tap, then a bathtub fills with water. But suppose someone turns on a bathtub tap, and then the bathtub does not fill with water.","generate, unconstrained","""",""""
250,16,4,"""",37490.0,survey-text,10,883007,23,61b38ae9363f15657027ed01,61ba274168625d0d389fdfb1,5f2a12f5837dd81e5881b7cc,61ba274168625d0d389fdfb1,"{""Explanation"":""the person was wearing knee pads.""}","""",test,"If someone falls on the sidewalk, then they scrape your knee. But suppose someone falls on the sidewalk, and then they do not scrape their knee.","generate, unconstrained","""",""""
251,16,4,"""",63141.0,survey-text,11,946151,23,61b38ae9363f15657027ed01,61ba274168625d0d389fdfb1,5f2a12f5837dd81e5881b7cc,61ba274168625d0d389fdfb1,"{""Explanation"":""the thrown rocks were too small to break the glass.""}","""",test,"If rocks are thrown at a window, then the window breaks. But suppose rocks are thrown at a window, and then the window does not break.","generate, unconstrained","""",""""
252,16,4,"[{""page_index"":0,""viewing_time"":4271},{""page_index"":1,""viewing_time"":17786}]",22058.0,instructions,12,968208,23,61b38ae9363f15657027ed01,61ba274168625d0d389fdfb1,5f2a12f5837dd81e5881b7cc,61ba274168625d0d389fdfb1,"""","""","""","""","""","""",""""
253,16,4,"""",19281.0,survey-multi-choice,13,987490,23,61b38ae9363f15657027ed01,61ba274168625d0d389fdfb1,5f2a12f5837dd81e5881b7cc,61ba274168625d0d389fdfb1,"{""Q0"":""How frequently you think events occur in the real-world."",""Q1"":""By moving sliders.""}","[0,1]","""","""","""","""",""""
254,16,4,"[{""page_index"":0,""viewing_time"":5587},{""page_index"":1,""viewing_time"":22414}]",28001.0,instructions,14,1015492,23,61b38ae9363f15657027ed01,61ba274168625d0d389fdfb1,5f2a12f5837dd81e5881b7cc,61ba274168625d0d389fdfb1,"""","""","""","""","""","""",""""
255,16,4,"""",11906.0,survey-multi-choice,15,1027401,23,61b38ae9363f15657027ed01,61ba274168625d0d389fdfb1,5f2a12f5837dd81e5881b7cc,61ba274168625d0d389fdfb1,"{""Q0"":""How frequently you think events occur in the real-world."",""Q1"":""By selecting an option from a multiple choice scale.""}","[0,1]","""","""","""","""",""""
256,16,4,"[{""page_index"":0,""viewing_time"":3709}]",3709.0,instructions,16,1031110,23,61b38ae9363f15657027ed01,61ba274168625d0d389fdfb1,5f2a12f5837dd81e5881b7cc,61ba274168625d0d389fdfb1,"""","""","""","""","""","""",""""
257,16,4,"""",110790.0,survey-likert,17,1141903,23,61b38ae9363f15657027ed01,61ba274168625d0d389fdfb1,5f2a12f5837dd81e5881b7cc,61ba274168625d0d389fdfb1,"{""freqX"":3,""freqY_givenX"":1}","[0,1]",test,"If a fire in an apartment occurs, then the fire alarm goes off. But suppose a fire in an apartment occurs, and then the fire alarm do not goes off.","""",a fire in an apartment occurs,the fire alarm goes off
258,16,4,"""",96132.0,survey-likert,18,1238037,23,61b38ae9363f15657027ed01,61ba274168625d0d389fdfb1,5f2a12f5837dd81e5881b7cc,61ba274168625d0d389fdfb1,"{""freqX"":2,""freqY_givenX"":2}","[0,1]",test,"If someone touches poison ivy, then they get a rash. But suppose touches poison ivy, and then they do not get a rash.","""","someone touches poison ivy,",they get a rash
259,16,4,"""",55348.0,survey-likert,19,1293387,23,61b38ae9363f15657027ed01,61ba274168625d0d389fdfb1,5f2a12f5837dd81e5881b7cc,61ba274168625d0d389fdfb1,"{""freqX"":2,""freqY_givenX"":1}","[0,1]",test,"If an egg carton is dropped, then the eggs break. But suppose an egg carton is dropped, and then the eggs do not break.","""",an egg carton is dropped,the eggs break
