,Unnamed: 0,run_id,condition,view_history,rt,trial_type,trial_index,time_elapsed,PROLIFIC_PID,STUDY_ID,SESSION_ID,subject_id,session_id,response,question_order,phase,prompt,real_world,typical_goal,task
0,0,10,1,"[{""page_index"":0,""viewing_time"":9923},{""page_index"":1,""viewing_time"":75755},{""page_index"":2,""viewing_time"":11586},{""page_index"":3,""viewing_time"":14946},{""page_index"":4,""viewing_time"":2550}]",114762,instructions,0,114785,21,60edecb2a22d916d2ed4a6f9,60ef4495862a9091952419bc,60e435dd661306d662234181,60ef4495862a9091952419bc,"""","""","""","""","""","""",""""
1,1,10,1,"""",10734,survey-multi-choice,1,125578,21,60edecb2a22d916d2ed4a6f9,60ef4495862a9091952419bc,60e435dd661306d662234181,60ef4495862a9091952419bc,"{""Q0"":""Plans to achieve goals."",""Q1"":""By writing text.""}","[0,1]","""","""","""","""",""""
2,2,10,1,"[{""page_index"":0,""viewing_time"":2349}]",2350,instructions,2,127938,21,60edecb2a22d916d2ed4a6f9,60ef4495862a9091952419bc,60e435dd661306d662234181,60ef4495862a9091952419bc,"""","""","""","""","""","""",""""
3,3,10,1,"""",145569,survey-text,3,273684,21,60edecb2a22d916d2ed4a6f9,60ef4495862a9091952419bc,60e435dd661306d662234181,60ef4495862a9091952419bc,"{""Plan"":""I'd have to try out my ideas with that of my colleagues, then we'd purchase materials and secure a location for building the float.""}","""",test,Build a float to dazzle the crowd at the Macy's Day Parade.,"""","""","generate, unconstrained"
4,4,10,1,"""",228299,survey-text,4,502021,21,60edecb2a22d916d2ed4a6f9,60ef4495862a9091952419bc,60e435dd661306d662234181,60ef4495862a9091952419bc,"{""Plan"":""I'd wait study how the locks are and I'd ensure there's a sharp object I can use to pick the lock, then wait for the guard to take a walk before picking the lock and crawling my way out.""}","""",test,Escape from inside a locked custodial closet.,"""","""","generate, unconstrained"
5,5,10,1,"""",79237,survey-text,5,581303,21,60edecb2a22d916d2ed4a6f9,60ef4495862a9091952419bc,60e435dd661306d662234181,60ef4495862a9091952419bc,"{""Plan"":""I'd give him at least 5m in front to make a good run up so as to gather momentum, once I get close to him, I'd place my hands on his shoulder and try to jump over him.""}","""",test,Jump over a six foot tall man.,"""","""","generate, unconstrained"
6,6,10,1,"""",73227,survey-text,6,654569,21,60edecb2a22d916d2ed4a6f9,60ef4495862a9091952419bc,60e435dd661306d662234181,60ef4495862a9091952419bc,"{""Plan"":""I'd get my painting equipment(paint brush and paint), then go over to the fence and start painting. ""}","""",test,Paint a fence.,"""","""","generate, unconstrained"
7,7,10,1,"""",112203,survey-text,7,766824,21,60edecb2a22d916d2ed4a6f9,60ef4495862a9091952419bc,60e435dd661306d662234181,60ef4495862a9091952419bc,"{""Plan"":""I'd get a bowl, put my butter, sugar and flour and use my spatula to stir the mixture to get the desired outcome. Then I pout in a pan, ready to put in the oven for baking.""}","""",test,Bake a cake.,"""","""","generate, unconstrained"
8,8,10,1,"""",84572,survey-text,8,851433,21,60edecb2a22d916d2ed4a6f9,60ef4495862a9091952419bc,60e435dd661306d662234181,60ef4495862a9091952419bc,"{""Plan"":""Quicksands aren't actually quick, the goal is to make yourself very light, standstill for some moments and then make short backward steps.""}","""",test,Escape quicksand.,"""","""","generate, unconstrained"
9,9,10,1,"""",75783,survey-text,9,927268,21,60edecb2a22d916d2ed4a6f9,60ef4495862a9091952419bc,60e435dd661306d662234181,60ef4495862a9091952419bc,"{""Plan"":""The best way to do this is to ensure I have the contact of the animal control services, that way if any poacher try to hurt them, there would be a rescue team in handy.""}","""",test,Protect the deer in your nearby woods during hunting season.,"""","""","generate, unconstrained"
10,10,10,1,"[{""page_index"":0,""viewing_time"":2987},{""page_index"":1,""viewing_time"":10773}]",13761,instructions,10,941036,21,60edecb2a22d916d2ed4a6f9,60ef4495862a9091952419bc,60e435dd661306d662234181,60ef4495862a9091952419bc,"""","""","""","""","""","""",""""
11,11,10,1,"""",8298,survey-multi-choice,11,949351,21,60edecb2a22d916d2ed4a6f9,60ef4495862a9091952419bc,60e435dd661306d662234181,60ef4495862a9091952419bc,"{""Q0"":""How frequently you think people try to achieve each goal."",""Q1"":""By selecting an option from a multiple choice scale.""}","[0,1]","""","""","""","""",""""
12,12,10,1,"[{""page_index"":0,""viewing_time"":1559}]",1559,instructions,12,950917,21,60edecb2a22d916d2ed4a6f9,60ef4495862a9091952419bc,60e435dd661306d662234181,60ef4495862a9091952419bc,"""","""","""","""","""","""",""""
13,13,10,1,"""",19652,survey-likert,13,970599,21,60edecb2a22d916d2ed4a6f9,60ef4495862a9091952419bc,60e435dd661306d662234181,60ef4495862a9091952419bc,"{""freq"":3}",[0],test,"""","""","""",""""
14,14,10,1,"""",17159,survey-likert,14,987769,21,60edecb2a22d916d2ed4a6f9,60ef4495862a9091952419bc,60e435dd661306d662234181,60ef4495862a9091952419bc,"{""freq"":5}",[0],test,"""","""","""",""""
15,15,10,1,"""",11956,survey-likert,15,999748,21,60edecb2a22d916d2ed4a6f9,60ef4495862a9091952419bc,60e435dd661306d662234181,60ef4495862a9091952419bc,"{""freq"":4}",[0],test,"""","""","""",""""
16,16,10,1,"""",6481,survey-likert,16,1006239,21,60edecb2a22d916d2ed4a6f9,60ef4495862a9091952419bc,60e435dd661306d662234181,60ef4495862a9091952419bc,"{""freq"":1}",[0],test,"""","""","""",""""
17,17,10,1,"""",6816,survey-likert,17,1013078,21,60edecb2a22d916d2ed4a6f9,60ef4495862a9091952419bc,60e435dd661306d662234181,60ef4495862a9091952419bc,"{""freq"":1}",[0],test,"""","""","""",""""
18,18,10,1,"""",11402,survey-likert,18,1024503,21,60edecb2a22d916d2ed4a6f9,60ef4495862a9091952419bc,60e435dd661306d662234181,60ef4495862a9091952419bc,"{""freq"":5}",[0],test,"""","""","""",""""
19,19,10,1,"""",8562,survey-likert,19,1033088,21,60edecb2a22d916d2ed4a6f9,60ef4495862a9091952419bc,60e435dd661306d662234181,60ef4495862a9091952419bc,"{""freq"":2}",[0],test,"""","""","""",""""
20,20,10,1,"""",29561,survey-text,20,1062699,21,60edecb2a22d916d2ed4a6f9,60ef4495862a9091952419bc,60e435dd661306d662234181,60ef4495862a9091952419bc,"{""Q0"":""9"",""Q1"":""3"",""Q2"":""8"",""Q3"":""3"",""Q4"":""None""}","""","""","""","""","""",""""
21,21,11,2,"[{""page_index"":0,""viewing_time"":8203.50000000326},{""page_index"":1,""viewing_time"":7404.099999999744},{""page_index"":2,""viewing_time"":7201.099999991129},{""page_index"":3,""viewing_time"":11523.700000005192},{""page_index"":4,""viewing_time"":2727.4000000033993}]",37061.7,instructions,0,37094,16,60edecb2a22d916d2ed4a6f9,60ef44c1d25613f5bd6eba69,60dba715bff7af04ab2ee539,60ef44c1d25613f5bd6eba69,"""","""","""","""","""","""",""""
22,22,11,2,"""",20314.4,survey-multi-choice,1,57434,16,60edecb2a22d916d2ed4a6f9,60ef44c1d25613f5bd6eba69,60dba715bff7af04ab2ee539,60ef44c1d25613f5bd6eba69,"{""Q0"":""Plans to achieve goals."",""Q1"":""By writing text.""}","[0,1]","""","""","""","""",""""
23,23,11,2,"[{""page_index"":0,""viewing_time"":3065.2999999874737}]",3066.5,instructions,2,60506,16,60edecb2a22d916d2ed4a6f9,60ef44c1d25613f5bd6eba69,60dba715bff7af04ab2ee539,60ef44c1d25613f5bd6eba69,"""","""","""","""","""","""",""""
24,24,11,2,"""",173262.5,survey-text,3,233787,16,60edecb2a22d916d2ed4a6f9,60ef44c1d25613f5bd6eba69,60dba715bff7af04ab2ee539,60ef44c1d25613f5bd6eba69,"{""Plan"":""I'm going to make a new pair of shoes for this coming ceremony,I will ask a cobbler to made a very beautiful black shoe for me because am using it with white long dresses.""}","""",test,Make a pair of new shoes.,"""","""","generate, unconstrained"
25,25,11,2,"""",77807.2,survey-text,4,311614,16,60edecb2a22d916d2ed4a6f9,60ef44c1d25613f5bd6eba69,60dba715bff7af04ab2ee539,60ef44c1d25613f5bd6eba69,"{""Plan"":""Yeah!! I'm going to steal the award by doing great in the competition and focus more on my opponent weakness""}","""",test,Steal the championship trophy from behind your school's award case.,"""","""","generate, unconstrained"
26,26,11,2,"""",97903,survey-text,5,409530,16,60edecb2a22d916d2ed4a6f9,60ef44c1d25613f5bd6eba69,60dba715bff7af04ab2ee539,60ef44c1d25613f5bd6eba69,"{""Plan"":""I'm going to cool down a record by doing my best in the the activity""}","""",test,Cool down in a record-breaking heat wave.,"""","""","generate, unconstrained"
27,27,11,2,"""",68280.3,survey-text,6,477827,16,60edecb2a22d916d2ed4a6f9,60ef44c1d25613f5bd6eba69,60dba715bff7af04ab2ee539,60ef44c1d25613f5bd6eba69,"{""Plan"":""I will make sure I campaign for all my friends to vote for mayor""}","""",test,Help your local town mayor win re-election.,"""","""","generate, unconstrained"
28,28,11,2,"""",41072,survey-text,7,518917,16,60edecb2a22d916d2ed4a6f9,60ef44c1d25613f5bd6eba69,60dba715bff7af04ab2ee539,60ef44c1d25613f5bd6eba69,"{""Plan"":""I'm gonna play basketball with my friends this coming weekend""}","""",test,Play baseball with your friends.,"""","""","generate, unconstrained"
29,29,11,2,"""",57431.7,survey-text,8,576357,16,60edecb2a22d916d2ed4a6f9,60ef44c1d25613f5bd6eba69,60dba715bff7af04ab2ee539,60ef44c1d25613f5bd6eba69,"{""Plan"":""It's been awhile I go out with my dog, definitely tomorrow is alright to take stroll with her""}","""",test,Take your dog for a walk.,"""","""","generate, unconstrained"
30,30,11,2,"""",41508.3,survey-text,9,617880,16,60edecb2a22d916d2ed4a6f9,60ef44c1d25613f5bd6eba69,60dba715bff7af04ab2ee539,60ef44c1d25613f5bd6eba69,"{""Plan"":""I'm gonna call someone to fix my sofa onto the roof of my house very soon""}","""",test,Get your sofa onto the roof of your house.,"""","""","generate, unconstrained"
31,31,11,2,"[{""page_index"":0,""viewing_time"":8825.800000005984},{""page_index"":1,""viewing_time"":14915.89999999269}]",23742.9,instructions,10,641625,16,60edecb2a22d916d2ed4a6f9,60ef44c1d25613f5bd6eba69,60dba715bff7af04ab2ee539,60ef44c1d25613f5bd6eba69,"""","""","""","""","""","""",""""
32,32,11,2,"""",25698.1,survey-multi-choice,11,667345,16,60edecb2a22d916d2ed4a6f9,60ef44c1d25613f5bd6eba69,60dba715bff7af04ab2ee539,60ef44c1d25613f5bd6eba69,"{""Q0"":""The goodness of plans."",""Q1"":""By moving sliders.""}","[0,1]","""","""","""","""",""""
33,33,11,2,"[{""page_index"":0,""viewing_time"":4807.699999990291},{""page_index"":1,""viewing_time"":10891.900000002352}]",15700.7,instructions,12,683049,16,60edecb2a22d916d2ed4a6f9,60ef44c1d25613f5bd6eba69,60dba715bff7af04ab2ee539,60ef44c1d25613f5bd6eba69,"""","""","""","""","""","""",""""
34,34,11,2,"""",13895.3,survey-multi-choice,13,696955,16,60edecb2a22d916d2ed4a6f9,60ef44c1d25613f5bd6eba69,60dba715bff7af04ab2ee539,60ef44c1d25613f5bd6eba69,"{""Q0"":""How frequently you think people try to achieve each goal."",""Q1"":""By selecting an option from a multiple choice scale.""}","[0,1]","""","""","""","""",""""
35,35,11,2,"[{""page_index"":0,""viewing_time"":2804.3999999936204}]",2805.4,instructions,14,699763,16,60edecb2a22d916d2ed4a6f9,60ef44c1d25613f5bd6eba69,60dba715bff7af04ab2ee539,60ef44c1d25613f5bd6eba69,"""","""","""","""","""","""",""""
36,36,11,2,"""",19441,survey-likert,15,719238,16,60edecb2a22d916d2ed4a6f9,60ef44c1d25613f5bd6eba69,60dba715bff7af04ab2ee539,60ef44c1d25613f5bd6eba69,"{""freq"":2}",[0],test,"""","""","""",""""
37,37,11,2,"""",36211.9,survey-likert,16,755458,16,60edecb2a22d916d2ed4a6f9,60ef44c1d25613f5bd6eba69,60dba715bff7af04ab2ee539,60ef44c1d25613f5bd6eba69,"{""freq"":3}",[0],test,"""","""","""",""""
38,38,11,2,"""",6804.4,survey-likert,17,762276,16,60edecb2a22d916d2ed4a6f9,60ef44c1d25613f5bd6eba69,60dba715bff7af04ab2ee539,60ef44c1d25613f5bd6eba69,"{""freq"":3}",[0],test,"""","""","""",""""
39,39,11,2,"""",17088.9,survey-likert,18,779372,16,60edecb2a22d916d2ed4a6f9,60ef44c1d25613f5bd6eba69,60dba715bff7af04ab2ee539,60ef44c1d25613f5bd6eba69,"{""freq"":1}",[0],test,"""","""","""",""""
40,40,11,2,"""",9298.9,survey-likert,19,788684,16,60edecb2a22d916d2ed4a6f9,60ef44c1d25613f5bd6eba69,60dba715bff7af04ab2ee539,60ef44c1d25613f5bd6eba69,"{""freq"":0}",[0],test,"""","""","""",""""
41,41,11,2,"""",12680.5,survey-likert,20,801372,16,60edecb2a22d916d2ed4a6f9,60ef44c1d25613f5bd6eba69,60dba715bff7af04ab2ee539,60ef44c1d25613f5bd6eba69,"{""freq"":2}",[0],test,"""","""","""",""""
42,42,11,2,"""",5124.7,survey-likert,21,806511,16,60edecb2a22d916d2ed4a6f9,60ef44c1d25613f5bd6eba69,60dba715bff7af04ab2ee539,60ef44c1d25613f5bd6eba69,"{""freq"":2}",[0],test,"""","""","""",""""
43,43,11,2,"""",56098.4,survey-text,22,862642,16,60edecb2a22d916d2ed4a6f9,60ef44c1d25613f5bd6eba69,60dba715bff7af04ab2ee539,60ef44c1d25613f5bd6eba69,"{""Q0"":""10"",""Q1"":""5"",""Q2"":""8"",""Q3"":""6"",""Q4"":""It's fun""}","""","""","""","""","""",""""
44,44,12,4,"[{""page_index"":0,""viewing_time"":7396.100000000035},{""page_index"":1,""viewing_time"":1367.0999999999767},{""page_index"":2,""viewing_time"":1295},{""page_index"":3,""viewing_time"":1441},{""page_index"":4,""viewing_time"":1455.2000000000116}]",12957.5,instructions,0,13051,19,60edecb2a22d916d2ed4a6f9,60ef447c8b1004ab35fa138c,60e0bdf371f6d14de432d06d,60ef447c8b1004ab35fa138c,"""","""","""","""","""","""",""""
45,45,12,4,"""",6525.7,survey-multi-choice,1,19607,19,60edecb2a22d916d2ed4a6f9,60ef447c8b1004ab35fa138c,60e0bdf371f6d14de432d06d,60ef447c8b1004ab35fa138c,"{""Q0"":""Plans to achieve goals."",""Q1"":""By writing text.""}","[0,1]","""","""","""","""",""""
46,46,12,4,"[{""page_index"":0,""viewing_time"":2178.5}]",2179.5,instructions,2,21796,19,60edecb2a22d916d2ed4a6f9,60ef447c8b1004ab35fa138c,60e0bdf371f6d14de432d06d,60ef447c8b1004ab35fa138c,"""","""","""","""","""","""",""""
47,47,12,4,"""",156103.4,survey-text,3,177994,19,60edecb2a22d916d2ed4a6f9,60ef447c8b1004ab35fa138c,60e0bdf371f6d14de432d06d,60ef447c8b1004ab35fa138c,"{""Plan"":""Get as much oxygen tanks and masks, then I proceed to building a fortified fort. ""}","""",test,Make a fort underwater.,"""","""","generate, unconstrained"
48,48,12,4,"""",206968.1,survey-text,4,384980,19,60edecb2a22d916d2ed4a6f9,60ef447c8b1004ab35fa138c,60e0bdf371f6d14de432d06d,60ef447c8b1004ab35fa138c,"{""Plan"":""I get my tools, then I find the puncture, then I remove the affected tire and I replace with a spare tire.""}","""",test,Fix a flat tire.,"""","""","generate, unconstrained"
49,49,12,4,"""",291442.9,survey-text,5,676453,19,60edecb2a22d916d2ed4a6f9,60ef447c8b1004ab35fa138c,60e0bdf371f6d14de432d06d,60ef447c8b1004ab35fa138c,"{""Plan"":""I try to determine the exact location the diver will land and put a life net there.""}","""",test,Create a safe landing for a falling skydiver.,"""","""","generate, unconstrained"
50,50,12,4,"""",64932.6,survey-text,6,741406,19,60edecb2a22d916d2ed4a6f9,60ef447c8b1004ab35fa138c,60e0bdf371f6d14de432d06d,60ef447c8b1004ab35fa138c,"{""Plan"":""I set the dishes aside then I proceed to wash them""}","""",test,Clean the dirty dishes.,"""","""","generate, unconstrained"
51,51,12,4,"""",293343.7,survey-text,7,1034777,19,60edecb2a22d916d2ed4a6f9,60ef447c8b1004ab35fa138c,60e0bdf371f6d14de432d06d,60ef447c8b1004ab35fa138c,"{""Plan"":""I try to switch off my electricity and I grab an extinguisher and put off the fire.""}","""",test,Put out a fire that started near the wires from your TV.,"""","""","generate, unconstrained"
52,52,12,4,"""",52205.5,survey-text,8,1087005,19,60edecb2a22d916d2ed4a6f9,60ef447c8b1004ab35fa138c,60e0bdf371f6d14de432d06d,60ef447c8b1004ab35fa138c,"{""Plan"":""Get a submarine and go into the cove""}","""",test,Find out how many sharks live in a cove off a nearby coast.,"""","""","generate, unconstrained"
53,53,12,4,"""",172240.6,survey-text,9,1259271,19,60edecb2a22d916d2ed4a6f9,60ef447c8b1004ab35fa138c,60e0bdf371f6d14de432d06d,60ef447c8b1004ab35fa138c,"{""Plan"":""Try to always water the plant and care for it.""}","""",test,Keep the plants in your garden alive.,"""","""","generate, unconstrained"
54,54,12,4,"[{""page_index"":0,""viewing_time"":3111.2000000001863},{""page_index"":1,""viewing_time"":79883.5}]",82996.3,instructions,10,1342276,19,60edecb2a22d916d2ed4a6f9,60ef447c8b1004ab35fa138c,60e0bdf371f6d14de432d06d,60ef447c8b1004ab35fa138c,"""","""","""","""","""","""",""""
55,55,12,4,"""",13640.3,survey-multi-choice,11,1355934,19,60edecb2a22d916d2ed4a6f9,60ef447c8b1004ab35fa138c,60e0bdf371f6d14de432d06d,60ef447c8b1004ab35fa138c,"{""Q0"":""How frequently you think people try to achieve each goal."",""Q1"":""By selecting an option from a multiple choice scale.""}","[0,1]","""","""","""","""",""""
56,56,12,4,"[{""page_index"":0,""viewing_time"":29852.09999999986}]",29853.7,instructions,12,1385794,19,60edecb2a22d916d2ed4a6f9,60ef447c8b1004ab35fa138c,60e0bdf371f6d14de432d06d,60ef447c8b1004ab35fa138c,"""","""","""","""","""","""",""""
57,57,12,4,"""",15475,survey-likert,13,1401282,19,60edecb2a22d916d2ed4a6f9,60ef447c8b1004ab35fa138c,60e0bdf371f6d14de432d06d,60ef447c8b1004ab35fa138c,"{""freq"":5}",[0],test,"""","""","""",""""
58,58,12,4,"""",5205.5,survey-likert,14,1406500,19,60edecb2a22d916d2ed4a6f9,60ef447c8b1004ab35fa138c,60e0bdf371f6d14de432d06d,60ef447c8b1004ab35fa138c,"{""freq"":0}",[0],test,"""","""","""",""""
59,59,12,4,"""",9034.1,survey-likert,15,1415570,19,60edecb2a22d916d2ed4a6f9,60ef447c8b1004ab35fa138c,60e0bdf371f6d14de432d06d,60ef447c8b1004ab35fa138c,"{""freq"":3}",[0],test,"""","""","""",""""
60,60,12,4,"""",6369.1,survey-likert,16,1421949,19,60edecb2a22d916d2ed4a6f9,60ef447c8b1004ab35fa138c,60e0bdf371f6d14de432d06d,60ef447c8b1004ab35fa138c,"{""freq"":0}",[0],test,"""","""","""",""""
61,61,12,4,"""",9630.8,survey-likert,17,1431601,19,60edecb2a22d916d2ed4a6f9,60ef447c8b1004ab35fa138c,60e0bdf371f6d14de432d06d,60ef447c8b1004ab35fa138c,"{""freq"":1}",[0],test,"""","""","""",""""
62,62,12,4,"""",9651.6,survey-likert,18,1441262,19,60edecb2a22d916d2ed4a6f9,60ef447c8b1004ab35fa138c,60e0bdf371f6d14de432d06d,60ef447c8b1004ab35fa138c,"{""freq"":3}",[0],test,"""","""","""",""""
63,63,12,4,"""",10637.5,survey-likert,19,1451919,19,60edecb2a22d916d2ed4a6f9,60ef447c8b1004ab35fa138c,60e0bdf371f6d14de432d06d,60ef447c8b1004ab35fa138c,"{""freq"":0}",[0],test,"""","""","""",""""
64,64,12,4,"""",29265.3,survey-text,20,1481217,19,60edecb2a22d916d2ed4a6f9,60ef447c8b1004ab35fa138c,60e0bdf371f6d14de432d06d,60ef447c8b1004ab35fa138c,"{""Q0"":""10"",""Q1"":""10"",""Q2"":""10"",""Q3"":""5"",""Q4"":""}","""","""","""","""","""",""""
65,65,21,3,"[{""page_index"":0,""viewing_time"":17573},{""page_index"":1,""viewing_time"":8287},{""page_index"":2,""viewing_time"":34327},{""page_index"":3,""viewing_time"":33617},{""page_index"":4,""viewing_time"":2360}]",96165,instructions,0,96167,27,60edecb2a22d916d2ed4a6f9,60ef46c95a07abbd12a3aef1,60eeafb1590e2f2b86c77617,60ef46c95a07abbd12a3aef1,"""","""","""","""","""","""",""""
66,66,21,3,"""",20800,survey-multi-choice,1,116975,27,60edecb2a22d916d2ed4a6f9,60ef46c95a07abbd12a3aef1,60eeafb1590e2f2b86c77617,60ef46c95a07abbd12a3aef1,"{""Q0"":""Plans to achieve goals."",""Q1"":""By writing text.""}","[0,1]","""","""","""","""",""""
67,67,21,3,"[{""page_index"":0,""viewing_time"":9294}]",9294,instructions,2,126271,27,60edecb2a22d916d2ed4a6f9,60ef46c95a07abbd12a3aef1,60eeafb1590e2f2b86c77617,60ef46c95a07abbd12a3aef1,"""","""","""","""","""","""",""""
68,68,21,3,"""",517092,survey-text,3,643372,27,60edecb2a22d916d2ed4a6f9,60ef46c95a07abbd12a3aef1,60eeafb1590e2f2b86c77617,60ef46c95a07abbd12a3aef1,"{""Plan"":""make a large christmas tree outside of my house by gathering all the ingredients""}","""",test,Decorate the world's largest Christmas tree.,"""","""","generate, unconstrained"
69,69,21,3,"""",214097,survey-text,4,857473,27,60edecb2a22d916d2ed4a6f9,60ef46c95a07abbd12a3aef1,60eeafb1590e2f2b86c77617,60ef46c95a07abbd12a3aef1,"{""Plan"":""I will go to in a nearest forest to cut down a tree.""}","""",test,Cut down a tree.,"""","""","generate, unconstrained"
70,70,21,3,"""",166179,survey-text,5,1023663,27,60edecb2a22d916d2ed4a6f9,60ef46c95a07abbd12a3aef1,60eeafb1590e2f2b86c77617,60ef46c95a07abbd12a3aef1,"{""Plan"":""From a distance I will through a peace of meat to the lion. So when he go for the meat to eat, the plaque from the teeth of the lion will come out.""}","""",test,Remove plaque from the teeth of a lion.,"""","""","generate, unconstrained"
71,71,21,3,"""",91972,survey-text,6,1115640,27,60edecb2a22d916d2ed4a6f9,60ef46c95a07abbd12a3aef1,60eeafb1590e2f2b86c77617,60ef46c95a07abbd12a3aef1,"{""Plan"":""One of the first steps in how to build a bookshelf is choosing the wood. The type of plywood you pick affects the price, weight and durability of your finished product. Pine, birch and oak are three common woods used for building homemade bookshelves.""}","""",test,Build a bookshelf.,"""","""","generate, unconstrained"
72,72,21,3,"""",253722,survey-text,7,1369368,27,60edecb2a22d916d2ed4a6f9,60ef46c95a07abbd12a3aef1,60eeafb1590e2f2b86c77617,60ef46c95a07abbd12a3aef1,"{""Plan"":""a small ball will keep in front of it and hence it entertained""}","""",test,Keep a baby platupyus entertained.,"""","""","generate, unconstrained"
73,73,21,3,"""",134306,survey-text,8,1503680,27,60edecb2a22d916d2ed4a6f9,60ef46c95a07abbd12a3aef1,60eeafb1590e2f2b86c77617,60ef46c95a07abbd12a3aef1,"{""Plan"":""At first I will download an app in which I can translate my language into their language. This is how I can order food in a restaurant""}","""",test,"Order food in a restaurant, where you don't speak the native language.","""","""","generate, unconstrained"
74,74,21,3,"""",115056,survey-text,9,1618743,27,60edecb2a22d916d2ed4a6f9,60ef46c95a07abbd12a3aef1,60eeafb1590e2f2b86c77617,60ef46c95a07abbd12a3aef1,"{""Plan"":""I will keep a big rock there and thus my canoe will stop from falling down the waterfall.""}","""",test,Stop your canoe from falling down the waterfall.,"""","""","generate, unconstrained"
75,75,21,3,"[{""page_index"":0,""viewing_time"":2255},{""page_index"":1,""viewing_time"":13240}]",15495,instructions,10,1634238,27,60edecb2a22d916d2ed4a6f9,60ef46c95a07abbd12a3aef1,60eeafb1590e2f2b86c77617,60ef46c95a07abbd12a3aef1,"""","""","""","""","""","""",""""
76,76,21,3,"""",18339,survey-multi-choice,11,1652583,27,60edecb2a22d916d2ed4a6f9,60ef46c95a07abbd12a3aef1,60eeafb1590e2f2b86c77617,60ef46c95a07abbd12a3aef1,"{""Q0"":""How frequently you think people try to achieve each goal."",""Q1"":""By selecting an option from a multiple choice scale.""}","[0,1]","""","""","""","""",""""
77,77,21,3,"[{""page_index"":0,""viewing_time"":1622}]",1622,instructions,12,1654206,27,60edecb2a22d916d2ed4a6f9,60ef46c95a07abbd12a3aef1,60eeafb1590e2f2b86c77617,60ef46c95a07abbd12a3aef1,"""","""","""","""","""","""",""""
78,78,21,3,"""",37293,survey-likert,13,1691504,27,60edecb2a22d916d2ed4a6f9,60ef46c95a07abbd12a3aef1,60eeafb1590e2f2b86c77617,60ef46c95a07abbd12a3aef1,"{""freq"":2}",[0],test,"""","""","""",""""
79,79,21,3,"""",10022,survey-likert,14,1701527,27,60edecb2a22d916d2ed4a6f9,60ef46c95a07abbd12a3aef1,60eeafb1590e2f2b86c77617,60ef46c95a07abbd12a3aef1,"{""freq"":0}",[0],test,"""","""","""",""""
80,80,21,3,"""",6557,survey-likert,15,1708088,27,60edecb2a22d916d2ed4a6f9,60ef46c95a07abbd12a3aef1,60eeafb1590e2f2b86c77617,60ef46c95a07abbd12a3aef1,"{""freq"":4}",[0],test,"""","""","""",""""
81,81,21,3,"""",3381,survey-likert,16,1711472,27,60edecb2a22d916d2ed4a6f9,60ef46c95a07abbd12a3aef1,60eeafb1590e2f2b86c77617,60ef46c95a07abbd12a3aef1,"{""freq"":0}",[0],test,"""","""","""",""""
82,82,21,3,"""",4585,survey-likert,17,1716061,27,60edecb2a22d916d2ed4a6f9,60ef46c95a07abbd12a3aef1,60eeafb1590e2f2b86c77617,60ef46c95a07abbd12a3aef1,"{""freq"":5}",[0],test,"""","""","""",""""
83,83,21,3,"""",4056,survey-likert,18,1720119,27,60edecb2a22d916d2ed4a6f9,60ef46c95a07abbd12a3aef1,60eeafb1590e2f2b86c77617,60ef46c95a07abbd12a3aef1,"{""freq"":0}",[0],test,"""","""","""",""""
84,84,21,3,"""",4156,survey-likert,19,1724279,27,60edecb2a22d916d2ed4a6f9,60ef46c95a07abbd12a3aef1,60eeafb1590e2f2b86c77617,60ef46c95a07abbd12a3aef1,"{""freq"":6}",[0],test,"""","""","""",""""
85,85,21,3,"""",29172,survey-text,20,1753455,27,60edecb2a22d916d2ed4a6f9,60ef46c95a07abbd12a3aef1,60eeafb1590e2f2b86c77617,60ef46c95a07abbd12a3aef1,"{""Q0"":""10"",""Q1"":""10"",""Q2"":""10"",""Q3"":""10"",""Q4"":""}","""","""","""","""","""",""""
86,86,20,3,"[{""page_index"":0,""viewing_time"":121874.7000000003},{""page_index"":1,""viewing_time"":4957.500000000437},{""page_index"":2,""viewing_time"":13265.599999998813},{""page_index"":3,""viewing_time"":7562.5},{""page_index"":4,""viewing_time"":1296.0999999995693},{""page_index"":3,""viewing_time"":11916.800000002695},{""page_index"":4,""viewing_time"":7434.599999996863}]",168339,instructions,0,168354,18,60edecb2a22d916d2ed4a6f9,60ef46933d1d88d969d32c83,60ddca371dde6a6beec90298,60ef46933d1d88d969d32c83,"""","""","""","""","""","""",""""
87,87,20,3,"""",7630.4,survey-multi-choice,1,176088,18,60edecb2a22d916d2ed4a6f9,60ef46933d1d88d969d32c83,60ddca371dde6a6beec90298,60ef46933d1d88d969d32c83,"{""Q0"":""Plans to achieve goals."",""Q1"":""By writing text.""}","[0,1]","""","""","""","""",""""
88,88,20,3,"[{""page_index"":0,""viewing_time"":2310.199999999895}]",2312.5,instructions,2,178410,18,60edecb2a22d916d2ed4a6f9,60ef46933d1d88d969d32c83,60ddca371dde6a6beec90298,60ef46933d1d88d969d32c83,"""","""","""","""","""","""",""""
89,89,20,3,"""",42358.6,survey-text,3,220808,18,60edecb2a22d916d2ed4a6f9,60ef46933d1d88d969d32c83,60ddca371dde6a6beec90298,60ef46933d1d88d969d32c83,"{""Plan"":""Inject the lion with sleeping drug before removing plague""}","""",test,Remove plaque from the teeth of a lion.,"""","""","generate, unconstrained"
90,90,20,3,"""",102541.6,survey-text,4,323367,18,60edecb2a22d916d2ed4a6f9,60ef46933d1d88d969d32c83,60ddca371dde6a6beec90298,60ef46933d1d88d969d32c83,"{""Plan"":""Entertain it with things the animal loves""}","""",test,Keep a baby platupyus entertained.,"""","""","generate, unconstrained"
91,91,20,3,"""",54506,survey-text,5,377895,18,60edecb2a22d916d2ed4a6f9,60ef46933d1d88d969d32c83,60ddca371dde6a6beec90298,60ef46933d1d88d969d32c83,"{""Plan"":""Purchase different books and separate them for better identification""}","""",test,Build a bookshelf.,"""","""","generate, unconstrained"
92,92,20,3,"""",53722.7,survey-text,6,431634,18,60edecb2a22d916d2ed4a6f9,60ef46933d1d88d969d32c83,60ddca371dde6a6beec90298,60ef46933d1d88d969d32c83,"{""Plan"":""Allow the canoe to be on equilibruim ""}","""",test,Stop your canoe from falling down the waterfall.,"""","""","generate, unconstrained"
93,93,20,3,"""",33414.2,survey-text,7,465071,18,60edecb2a22d916d2ed4a6f9,60ef46933d1d88d969d32c83,60ddca371dde6a6beec90298,60ef46933d1d88d969d32c83,"{""Plan"":""Use an axe to cut it down""}","""",test,Cut down a tree.,"""","""","generate, unconstrained"
94,94,20,3,"""",24732.7,survey-text,8,489820,18,60edecb2a22d916d2ed4a6f9,60ef46933d1d88d969d32c83,60ddca371dde6a6beec90298,60ef46933d1d88d969d32c83,"{""Plan"":""Use a translator to communicate with them""}","""",test,"Order food in a restaurant, where you don't speak the native language.","""","""","generate, unconstrained"
95,95,20,3,"""",140154.6,survey-text,9,629996,18,60edecb2a22d916d2ed4a6f9,60ef46933d1d88d969d32c83,60ddca371dde6a6beec90298,60ef46933d1d88d969d32c83,"{""Plan"":""Buy a large Christmas tree and add some  Christmas tree lights and decorations""}","""",test,Decorate the world's largest Christmas tree.,"""","""","generate, unconstrained"
96,96,20,3,"[{""page_index"":0,""viewing_time"":1564.6000000014901},{""page_index"":1,""viewing_time"":11454.699999998324}]",13029.7,instructions,10,643029,18,60edecb2a22d916d2ed4a6f9,60ef46933d1d88d969d32c83,60ddca371dde6a6beec90298,60ef46933d1d88d969d32c83,"""","""","""","""","""","""",""""
97,97,20,3,"""",20288.4,survey-multi-choice,11,663341,18,60edecb2a22d916d2ed4a6f9,60ef46933d1d88d969d32c83,60ddca371dde6a6beec90298,60ef46933d1d88d969d32c83,"{""Q0"":""How frequently you think people try to achieve each goal."",""Q1"":""By moving sliders.""}","[0,1]","""","""","""","""",""""
98,98,20,3,"[{""page_index"":0,""viewing_time"":2848.100000002887},{""page_index"":1,""viewing_time"":6601.199999997276}]",9457.3,instructions,12,672805,18,60edecb2a22d916d2ed4a6f9,60ef46933d1d88d969d32c83,60ddca371dde6a6beec90298,60ef46933d1d88d969d32c83,"""","""","""","""","""","""",""""
99,99,20,3,"""",11382.7,survey-multi-choice,13,684217,18,60edecb2a22d916d2ed4a6f9,60ef46933d1d88d969d32c83,60ddca371dde6a6beec90298,60ef46933d1d88d969d32c83,"{""Q0"":""How frequently you think people try to achieve each goal."",""Q1"":""By selecting an option from a multiple choice scale.""}","[0,1]","""","""","""","""",""""
100,100,20,3,"[{""page_index"":0,""viewing_time"":4812.899999997113}]",4815.9,instructions,14,689040,18,60edecb2a22d916d2ed4a6f9,60ef46933d1d88d969d32c83,60ddca371dde6a6beec90298,60ef46933d1d88d969d32c83,"""","""","""","""","""","""",""""
101,101,20,3,"""",14391.2,survey-likert,15,703523,18,60edecb2a22d916d2ed4a6f9,60ef46933d1d88d969d32c83,60ddca371dde6a6beec90298,60ef46933d1d88d969d32c83,"{""freq"":4}",[0],test,"""","""","""",""""
102,102,20,3,"""",5854.9,survey-likert,16,709399,18,60edecb2a22d916d2ed4a6f9,60ef46933d1d88d969d32c83,60ddca371dde6a6beec90298,60ef46933d1d88d969d32c83,"{""freq"":4}",[0],test,"""","""","""",""""
103,103,20,3,"""",4485.8,survey-likert,17,713916,18,60edecb2a22d916d2ed4a6f9,60ef46933d1d88d969d32c83,60ddca371dde6a6beec90298,60ef46933d1d88d969d32c83,"{""freq"":1}",[0],test,"""","""","""",""""
104,104,20,3,"""",10548.1,survey-likert,18,724489,18,60edecb2a22d916d2ed4a6f9,60ef46933d1d88d969d32c83,60ddca371dde6a6beec90298,60ef46933d1d88d969d32c83,"{""freq"":1}",[0],test,"""","""","""",""""
105,105,20,3,"""",2642.5,survey-likert,19,727160,18,60edecb2a22d916d2ed4a6f9,60ef46933d1d88d969d32c83,60ddca371dde6a6beec90298,60ef46933d1d88d969d32c83,"{""freq"":0}",[0],test,"""","""","""",""""
106,106,20,3,"""",3588.3,survey-likert,20,730764,18,60edecb2a22d916d2ed4a6f9,60ef46933d1d88d969d32c83,60ddca371dde6a6beec90298,60ef46933d1d88d969d32c83,"{""freq"":1}",[0],test,"""","""","""",""""
107,107,20,3,"""",11975.4,survey-likert,21,742760,18,60edecb2a22d916d2ed4a6f9,60ef46933d1d88d969d32c83,60ddca371dde6a6beec90298,60ef46933d1d88d969d32c83,"{""freq"":3}",[0],test,"""","""","""",""""
108,108,20,3,"""",27819.5,survey-text,22,770610,18,60edecb2a22d916d2ed4a6f9,60ef46933d1d88d969d32c83,60ddca371dde6a6beec90298,60ef46933d1d88d969d32c83,"{""Q0"":""10"",""Q1"":""1"",""Q2"":""1"",""Q3"":""1"",""Q4"":""}","""","""","""","""","""",""""
109,109,14,1,"[{""page_index"":0,""viewing_time"":6380},{""page_index"":1,""viewing_time"":2584.099999964237},{""page_index"":0,""viewing_time"":1239.9000000357628},{""page_index"":1,""viewing_time"":7927.699999988079},{""page_index"":2,""viewing_time"":4032},{""page_index"":3,""viewing_time"":16704.099999964237},{""page_index"":4,""viewing_time"":2223.900000035763}]",41093.1,instructions,0,41103,23,60edecb2a22d916d2ed4a6f9,60ef456f257f84a93416d28c,60ebc00ef3636798cb75e999,60ef456f257f84a93416d28c,"""","""","""","""","""","""",""""
110,110,14,1,"""",13807.9,survey-multi-choice,1,54918,23,60edecb2a22d916d2ed4a6f9,60ef456f257f84a93416d28c,60ebc00ef3636798cb75e999,60ef456f257f84a93416d28c,"{""Q0"":""Plans to achieve goals."",""Q1"":""By writing text.""}","[0,1]","""","""","""","""",""""
111,111,14,1,"[{""page_index"":0,""viewing_time"":1589.2999999523163}]",1589.6,instructions,2,56510,23,60edecb2a22d916d2ed4a6f9,60ef456f257f84a93416d28c,60ebc00ef3636798cb75e999,60ef456f257f84a93416d28c,"""","""","""","""","""","""",""""
112,112,14,1,"""",251411.5,survey-text,3,307934,23,60edecb2a22d916d2ed4a6f9,60ef456f257f84a93416d28c,60ebc00ef3636798cb75e999,60ef456f257f84a93416d28c,"{""Plan"":""The first step of baking a cake is deciding what type of cake. There are plenty of pre made boxes at your local grocery store with a galore a flavors and icings to choose from to complement your desired cake mix. Make sure to pick up some sprinkles or candles if its a birthday cake! Once you make it home from the store, you will read the directions on the back of the box and preheat your oven to the designated temperature. Next you will grab a good size bowl and mix the ingredients together, making sure there are no lumps. Next you will pour into a coated/nonstick pan and bake until your desired consistency is achieved. After it cools, removed the cake from the pan and decorate to your choosing! Enjoy!""}","""",test,Bake a cake.,"""","""","generate, unconstrained"
113,113,14,1,"""",109622.9,survey-text,4,417562,23,60edecb2a22d916d2ed4a6f9,60ef456f257f84a93416d28c,60ebc00ef3636798cb75e999,60ef456f257f84a93416d28c,"{""Plan"":""Calm down. Take a deep breathe and look at your surroundings. Assuming you are the custodian, do you have a key? If not, do you have a phone with service? Google and call the business you are at and have them unlock the door. You are now free. ""}","""",test,Escape from inside a locked custodial closet.,"""","""","generate, unconstrained"
114,114,14,1,"""",68654.8,survey-text,5,486222,23,60edecb2a22d916d2ed4a6f9,60ef456f257f84a93416d28c,60ebc00ef3636798cb75e999,60ef456f257f84a93416d28c,"{""Plan"":""Make sure to post plenty of No Hunting signs around your property, and use any necessary tools to attract the deer to the area. Popular tools for this are Deer Corn, Calls, and Salt lick bricks""}","""",test,Protect the deer in your nearby woods during hunting season.,"""","""","generate, unconstrained"
115,115,14,1,"""",201807.8,survey-text,6,688035,23,60edecb2a22d916d2ed4a6f9,60ef456f257f84a93416d28c,60ebc00ef3636798cb75e999,60ef456f257f84a93416d28c,"{""Plan"":""This is a huge opportunity for the right person, assuming it is you, you will want to plan this float out from start to finish. What will be the base of the float? How it will it be propelled? What emotion do you want to portray? There are many things to take into account other than the looks. Safety is a major concern too. How will you properly ensure the float riders' safety? Be sure to have plenty of room for them to be spread apart. Be sure to build your float from the bottom up""}","""",test,Build a float to dazzle the crowd at the Macy's Day Parade.,"""","""","generate, unconstrained"
116,116,14,1,"""",159168.6,survey-text,7,847210,23,60edecb2a22d916d2ed4a6f9,60ef456f257f84a93416d28c,60ebc00ef3636798cb75e999,60ef456f257f84a93416d28c,"{""Plan"":""Buy a pressure washer\nLightly pressure wash the fence, being gentle enough not to harm the fence\nLet dry\nPick your paint color\nBuy equipment\nUse a roller brush to paint a light coat onto the fence, repeating until desired paint solidity is reached\nLet dry""}","""",test,Paint a fence.,"""","""","generate, unconstrained"
117,117,14,1,"""",150292.9,survey-text,8,997507,23,60edecb2a22d916d2ed4a6f9,60ef456f257f84a93416d28c,60ebc00ef3636798cb75e999,60ef456f257f84a93416d28c,"{""Plan"":""Place x on floor and tell tall man to stand there.\nPlace small trampoline next to man\n20 feet running start from man and trampoline\nRun and jump onto Trampoline\nSoar above your 6 foot tall pal""}","""",test,Jump over a six foot tall man.,"""","""","generate, unconstrained"
118,118,14,1,"""",39906.2,survey-text,9,1037420,23,60edecb2a22d916d2ed4a6f9,60ef456f257f84a93416d28c,60ebc00ef3636798cb75e999,60ef456f257f84a93416d28c,"{""Plan"":""Lean back to prevent sinking\nStay calm\nPull yourself out""}","""",test,Escape quicksand.,"""","""","generate, unconstrained"
119,119,14,1,"[{""page_index"":0,""viewing_time"":2877.300000011921},{""page_index"":1,""viewing_time"":5028.099999964237}]",7906.3,instructions,10,1045327,23,60edecb2a22d916d2ed4a6f9,60ef456f257f84a93416d28c,60ebc00ef3636798cb75e999,60ef456f257f84a93416d28c,"""","""","""","""","""","""",""""
120,120,14,1,"""",10140.3,survey-multi-choice,11,1055471,23,60edecb2a22d916d2ed4a6f9,60ef456f257f84a93416d28c,60ebc00ef3636798cb75e999,60ef456f257f84a93416d28c,"{""Q0"":""How frequently you think people try to achieve each goal."",""Q1"":""By moving sliders.""}","[0,1]","""","""","""","""",""""
121,121,14,1,"[{""page_index"":0,""viewing_time"":1830.199999988079},{""page_index"":1,""viewing_time"":3355.900000035763}]",5186.4,instructions,12,1060658,23,60edecb2a22d916d2ed4a6f9,60ef456f257f84a93416d28c,60ebc00ef3636798cb75e999,60ef456f257f84a93416d28c,"""","""","""","""","""","""",""""
122,122,14,1,"""",4308.8,survey-multi-choice,13,1064971,23,60edecb2a22d916d2ed4a6f9,60ef456f257f84a93416d28c,60ebc00ef3636798cb75e999,60ef456f257f84a93416d28c,"{""Q0"":""How frequently you think people try to achieve each goal."",""Q1"":""By selecting an option from a multiple choice scale.""}","[0,1]","""","""","""","""",""""
123,123,14,1,"[{""page_index"":0,""viewing_time"":1330.5}]",1330.9,instructions,14,1066302,23,60edecb2a22d916d2ed4a6f9,60ef456f257f84a93416d28c,60ebc00ef3636798cb75e999,60ef456f257f84a93416d28c,"""","""","""","""","""","""",""""
124,124,14,1,"""",11637.3,survey-likert,15,1077943,23,60edecb2a22d916d2ed4a6f9,60ef456f257f84a93416d28c,60ebc00ef3636798cb75e999,60ef456f257f84a93416d28c,"{""freq"":1}",[0],test,"""","""","""",""""
125,125,14,1,"""",9961.2,survey-likert,16,1087907,23,60edecb2a22d916d2ed4a6f9,60ef456f257f84a93416d28c,60ebc00ef3636798cb75e999,60ef456f257f84a93416d28c,"{""freq"":3}",[0],test,"""","""","""",""""
126,126,14,1,"""",8383.3,survey-likert,17,1096295,23,60edecb2a22d916d2ed4a6f9,60ef456f257f84a93416d28c,60ebc00ef3636798cb75e999,60ef456f257f84a93416d28c,"{""freq"":2}",[0],test,"""","""","""",""""
127,127,14,1,"""",8961.4,survey-likert,18,1105258,23,60edecb2a22d916d2ed4a6f9,60ef456f257f84a93416d28c,60ebc00ef3636798cb75e999,60ef456f257f84a93416d28c,"{""freq"":3}",[0],test,"""","""","""",""""
128,128,14,1,"""",7888.2,survey-likert,19,1113151,23,60edecb2a22d916d2ed4a6f9,60ef456f257f84a93416d28c,60ebc00ef3636798cb75e999,60ef456f257f84a93416d28c,"{""freq"":2}",[0],test,"""","""","""",""""
129,129,14,1,"""",7933.4,survey-likert,20,1121087,23,60edecb2a22d916d2ed4a6f9,60ef456f257f84a93416d28c,60ebc00ef3636798cb75e999,60ef456f257f84a93416d28c,"{""freq"":3}",[0],test,"""","""","""",""""
130,130,14,1,"""",5539.6,survey-likert,21,1126631,23,60edecb2a22d916d2ed4a6f9,60ef456f257f84a93416d28c,60ebc00ef3636798cb75e999,60ef456f257f84a93416d28c,"{""freq"":4}",[0],test,"""","""","""",""""
131,131,14,1,"""",33367.4,survey-text,22,1160003,23,60edecb2a22d916d2ed4a6f9,60ef456f257f84a93416d28c,60ebc00ef3636798cb75e999,60ef456f257f84a93416d28c,"{""Q0"":""10"",""Q1"":""7"",""Q2"":""10"",""Q3"":""1"",""Q4"":""This was fun""}","""","""","""","""","""",""""
132,132,13,3,"[{""page_index"":0,""viewing_time"":13888.70000001043},{""page_index"":1,""viewing_time"":38469.40000005998},{""page_index"":2,""viewing_time"":13512.400000006892},{""page_index"":3,""viewing_time"":18743.000000016764},{""page_index"":4,""viewing_time"":7637.199999997392}]",92254,instructions,0,92279,29,60edecb2a22d916d2ed4a6f9,60ef44ede990acdb018f6646,60ef05b7a0f7ea906bd3c031,60ef44ede990acdb018f6646,"""","""","""","""","""","""",""""
133,133,13,3,"""",20760.7,survey-multi-choice,1,113070,29,60edecb2a22d916d2ed4a6f9,60ef44ede990acdb018f6646,60ef05b7a0f7ea906bd3c031,60ef44ede990acdb018f6646,"{""Q0"":""Plans to achieve goals."",""Q1"":""By writing text.""}","[0,1]","""","""","""","""",""""
134,134,13,3,"[{""page_index"":0,""viewing_time"":5789.199999999255}]",5790.5,instructions,2,118869,29,60edecb2a22d916d2ed4a6f9,60ef44ede990acdb018f6646,60ef05b7a0f7ea906bd3c031,60ef44ede990acdb018f6646,"""","""","""","""","""","""",""""
135,135,13,3,"""",71775.6,survey-text,3,190672,29,60edecb2a22d916d2ed4a6f9,60ef44ede990acdb018f6646,60ef05b7a0f7ea906bd3c031,60ef44ede990acdb018f6646,"{""Plan"":""I will get a chainsaw and a lorry to move it from the forest.""}","""",test,Cut down a tree.,"""","""","generate, unconstrained"
136,136,13,3,"""",92060,survey-text,4,282743,29,60edecb2a22d916d2ed4a6f9,60ef44ede990acdb018f6646,60ef05b7a0f7ea906bd3c031,60ef44ede990acdb018f6646,"{""Plan"":""I will get planks, nails and gum to construct it.""}","""",test,Build a bookshelf.,"""","""","generate, unconstrained"
137,137,13,3,"""",177841.5,survey-text,5,460601,29,60edecb2a22d916d2ed4a6f9,60ef44ede990acdb018f6646,60ef05b7a0f7ea906bd3c031,60ef44ede990acdb018f6646,"{""Plan"":""I will construct a aquarium and with plastic fish for it.""}","""",test,Keep a baby platupyus entertained.,"""","""","generate, unconstrained"
138,138,13,3,"""",51291.1,survey-text,6,511901,29,60edecb2a22d916d2ed4a6f9,60ef44ede990acdb018f6646,60ef05b7a0f7ea906bd3c031,60ef44ede990acdb018f6646,"{""Plan"":""Chop down a very tall Christmas tree, then decorate it with lights.""}","""",test,Decorate the world's largest Christmas tree.,"""","""","generate, unconstrained"
139,139,13,3,"""",29885.1,survey-text,7,541804,29,60edecb2a22d916d2ed4a6f9,60ef44ede990acdb018f6646,60ef05b7a0f7ea906bd3c031,60ef44ede990acdb018f6646,"{""Plan"":""I will ise sign language.""}","""",test,"Order food in a restaurant, where you don't speak the native language.","""","""","generate, unconstrained"
140,140,13,3,"""",58102.7,survey-text,8,599918,29,60edecb2a22d916d2ed4a6f9,60ef44ede990acdb018f6646,60ef05b7a0f7ea906bd3c031,60ef44ede990acdb018f6646,"{""Plan"":""First of all, i will shoot the lion with tranquilizer and remove the plaque.""}","""",test,Remove plaque from the teeth of a lion.,"""","""","generate, unconstrained"
141,141,13,3,"""",27986.6,survey-text,9,627917,29,60edecb2a22d916d2ed4a6f9,60ef44ede990acdb018f6646,60ef05b7a0f7ea906bd3c031,60ef44ede990acdb018f6646,"{""Plan"":""I will row the boat backwards.""}","""",test,Stop your canoe from falling down the waterfall.,"""","""","generate, unconstrained"
142,142,13,3,"[{""page_index"":0,""viewing_time"":4659.400000004098},{""page_index"":1,""viewing_time"":9764.900000067428}]",14425.4,instructions,10,642345,29,60edecb2a22d916d2ed4a6f9,60ef44ede990acdb018f6646,60ef05b7a0f7ea906bd3c031,60ef44ede990acdb018f6646,"""","""","""","""","""","""",""""
143,143,13,3,"""",13121.5,survey-multi-choice,11,655477,29,60edecb2a22d916d2ed4a6f9,60ef44ede990acdb018f6646,60ef05b7a0f7ea906bd3c031,60ef44ede990acdb018f6646,"{""Q0"":""How frequently you think people try to achieve each goal."",""Q1"":""By selecting an option from a multiple choice scale.""}","[0,1]","""","""","""","""",""""
144,144,13,3,"[{""page_index"":0,""viewing_time"":2269.0000000875443}]",2270.1,instructions,12,657751,29,60edecb2a22d916d2ed4a6f9,60ef44ede990acdb018f6646,60ef05b7a0f7ea906bd3c031,60ef44ede990acdb018f6646,"""","""","""","""","""","""",""""
145,145,13,3,"""",55355.6,survey-likert,13,713120,29,60edecb2a22d916d2ed4a6f9,60ef44ede990acdb018f6646,60ef05b7a0f7ea906bd3c031,60ef44ede990acdb018f6646,"{""freq"":3}",[0],test,"""","""","""",""""
146,146,13,3,"""",13472,survey-likert,14,726599,29,60edecb2a22d916d2ed4a6f9,60ef44ede990acdb018f6646,60ef05b7a0f7ea906bd3c031,60ef44ede990acdb018f6646,"{""freq"":2}",[0],test,"""","""","""",""""
147,147,13,3,"""",23166.1,survey-likert,15,749777,29,60edecb2a22d916d2ed4a6f9,60ef44ede990acdb018f6646,60ef05b7a0f7ea906bd3c031,60ef44ede990acdb018f6646,"{""freq"":3}",[0],test,"""","""","""",""""
148,148,13,3,"""",23928.1,survey-likert,16,773711,29,60edecb2a22d916d2ed4a6f9,60ef44ede990acdb018f6646,60ef05b7a0f7ea906bd3c031,60ef44ede990acdb018f6646,"{""freq"":2}",[0],test,"""","""","""",""""
149,149,13,3,"""",13888.4,survey-likert,17,787613,29,60edecb2a22d916d2ed4a6f9,60ef44ede990acdb018f6646,60ef05b7a0f7ea906bd3c031,60ef44ede990acdb018f6646,"{""freq"":0}",[0],test,"""","""","""",""""
150,150,13,3,"""",13599.4,survey-likert,18,801221,29,60edecb2a22d916d2ed4a6f9,60ef44ede990acdb018f6646,60ef05b7a0f7ea906bd3c031,60ef44ede990acdb018f6646,"{""freq"":6}",[0],test,"""","""","""",""""
151,151,13,3,"""",25814.2,survey-likert,19,827048,29,60edecb2a22d916d2ed4a6f9,60ef44ede990acdb018f6646,60ef05b7a0f7ea906bd3c031,60ef44ede990acdb018f6646,"{""freq"":4}",[0],test,"""","""","""",""""
152,152,13,3,"""",84723,survey-text,20,911784,29,60edecb2a22d916d2ed4a6f9,60ef44ede990acdb018f6646,60ef05b7a0f7ea906bd3c031,60ef44ede990acdb018f6646,"{""Q0"":""8"",""Q1"":""4"",""Q2"":""8"",""Q3"":""2"",""Q4"":""}","""","""","""","""","""",""""
153,153,15,4,"[{""page_index"":0,""viewing_time"":5350},{""page_index"":1,""viewing_time"":4987},{""page_index"":2,""viewing_time"":18144},{""page_index"":3,""viewing_time"":4202},{""page_index"":4,""viewing_time"":2220}]",34905,instructions,0,34910,26,60edecb2a22d916d2ed4a6f9,60ef459a02c3d2bec0f396ed,60edf7de15a0e195732ca8e0,60ef459a02c3d2bec0f396ed,"""","""","""","""","""","""",""""
154,154,15,4,"""",20089,survey-multi-choice,1,55009,26,60edecb2a22d916d2ed4a6f9,60ef459a02c3d2bec0f396ed,60edf7de15a0e195732ca8e0,60ef459a02c3d2bec0f396ed,"{""Q0"":""Plans to achieve goals."",""Q1"":""By writing text.""}","[0,1]","""","""","""","""",""""
155,155,15,4,"[{""page_index"":0,""viewing_time"":2016.9999999999927}]",2017,instructions,2,57029,26,60edecb2a22d916d2ed4a6f9,60ef459a02c3d2bec0f396ed,60edf7de15a0e195732ca8e0,60ef459a02c3d2bec0f396ed,"""","""","""","""","""","""",""""
156,156,15,4,"""",3066093,survey-text,3,3123088,26,60edecb2a22d916d2ed4a6f9,60ef459a02c3d2bec0f396ed,60edf7de15a0e195732ca8e0,60ef459a02c3d2bec0f396ed,"{""Plan"":""washing dirty dishes by hand(no dishwasher available): Begin by collecting all the dirty dishes in premises. As you pick up dirty dishes like a cup of ice and liquid, poor down the sink before placing in the area in area closest to counter space to dish washer. The same goes for plates and bowls of food that are left on the dishes, as you pick one up individually and notice large amounts of food left on it,  take one dish at a time to trash and scrap off food remains into trash with paper towel or dirty utensil you are picking up with the individual plate/ bowl. As you make your way collecting one dirty dish at a time and clearing liquid or large amounts of food from surface into trash, bring the collection of dirty dishes to a reachable counter space next to dish washer. Note, stack well and safely, by putting all flat dishes on each other, and utensils on top of that dish pile or inside an empty dirty cup. Do not stack a dish with utensils and another dish with utensils directly on each other. Do not stack dishes on top of each other that have food on them. this prevents accidents of a pile of dishes from falling and breaking, and possibly hurting you by falling on your foot. After all the dirty dishes are stacked to an arms reach next to the dish washer, open the dish washer and pull out wire rack drawer at the bottom first. Place all the dishes in one at a time using the rack seperation design to stand up the dish securely. The same is for bowls and dinner ware. Place all utensils in the smaller baskets. Next pull out second wire rack on the top most part, this is for cups and larger serving utensils. use the Wire rack design to load each cup individually facing down. the bottoms of the cups should all be seen from top view. After all the dirty dishes are loaded properly, locate the internal dish washer soap dispenser. Add the appropriate soap to the dispenser and close the dish washer door. Closing the dish washer door should also close in all the racks with loaded dishes. if you hear dishes hitting each other, you have loaded the racks improperly, and you need to  open the dishwasher and fix where the dishes are not properly secure. After all the dishes are secure and the dishwasher firmly closed, choose the wash cycle of your choosing. Press start, and after the allotted time of the wash cycle turning on to completion, you have cleaned the dirty dishes.  ""}","""",test,Clean the dirty dishes.,"""","""","generate, unconstrained"
157,157,15,4,"""",328606,survey-text,4,3451695,26,60edecb2a22d916d2ed4a6f9,60ef459a02c3d2bec0f396ed,60edf7de15a0e195732ca8e0,60ef459a02c3d2bec0f396ed,"{""Plan"":""immediately call 911 on your phone and report a fire for help. If you can at the same time you are calling 911 locate a fire extinguisher. Use fire extinguisher to put out fire until the fire department shows up. If you are not able to find a fire extinguisher at the same time calling 911, remove yourself and any other life forms out and away from room with fire. You do not want to pour water onto fire to prevent a greater electrical fire, or electricution through stepping in water on the floor. Stay on the phone with 911, and follow all their instructions. ""}","""",test,Put out a fire that started near the wires from your TV.,"""","""","generate, unconstrained"
158,158,15,4,"""",188029,survey-text,5,3639724,26,60edecb2a22d916d2ed4a6f9,60ef459a02c3d2bec0f396ed,60edf7de15a0e195732ca8e0,60ef459a02c3d2bec0f396ed,"{""Plan"":""According to the types of plants in your garden have paper work or notes taken on each individual care needs. If a plant needs less sun, cover with an umbrella, or move to shadier spot. follow all proper care for each individual plant by doing the research and everyday checking on them. Signs that they are not being properly cared for is, droopy stems, wrinkled leaves, or burnt brown leaves. ""}","""",test,Keep the plants in your garden alive.,"""","""","generate, unconstrained"
159,159,15,4,"""",126430,survey-text,6,3766154,26,60edecb2a22d916d2ed4a6f9,60ef459a02c3d2bec0f396ed,60edf7de15a0e195732ca8e0,60ef459a02c3d2bec0f396ed,"{""Plan"":""bring your flat tire to a car mechanic and ask them to fix the flat tire. If the flat tire is attached to a car, then call a tow to bring your car to a local car mechanic to fix the flat. DO NOT drive on a flat tire to a car mechanic. ""}","""",test,Fix a flat tire.,"""","""","generate, unconstrained"
160,160,15,4,"""",58761,survey-text,7,3824921,26,60edecb2a22d916d2ed4a6f9,60ef459a02c3d2bec0f396ed,60edf7de15a0e195732ca8e0,60ef459a02c3d2bec0f396ed,"{""Plan"":""I have not words for this. ""}","""",test,Create a safe landing for a falling skydiver.,"""","""","generate, unconstrained"
161,161,15,4,"""",4257878,survey-text,8,9913797,26,60edecb2a22d916d2ed4a6f9,60ef459a02c3d2bec0f396ed,60edf7de15a0e195732ca8e0,60ef459a02c3d2bec0f396ed,"{""Plan"":""Download the shark app on a smart phone, and search the coast you are looking at to see how many tagged sharks are in the cove. Or you can find a local aquarium and ask to speak to a marine biologist and ask for help in finding out the approximate amount that live in a cove off the coast. \n""}","""",test,Find out how many sharks live in a cove off a nearby coast.,"""","""","generate, unconstrained"
162,162,15,4,"""",86238,survey-text,9,10000039,26,60edecb2a22d916d2ed4a6f9,60ef459a02c3d2bec0f396ed,60edf7de15a0e195732ca8e0,60ef459a02c3d2bec0f396ed,"{""Plan"":""Find the best marine biologist and building engineer and work with them to build an underwater fort. Find as much professional help and make lots of plans before building the underwater fort.""}","""",test,Make a fort underwater.,"""","""","generate, unconstrained"
163,163,15,4,"[{""page_index"":0,""viewing_time"":5146},{""page_index"":1,""viewing_time"":19136.00000000093}]",24283,instructions,10,10024323,26,60edecb2a22d916d2ed4a6f9,60ef459a02c3d2bec0f396ed,60edf7de15a0e195732ca8e0,60ef459a02c3d2bec0f396ed,"""","""","""","""","""","""",""""
164,164,15,4,"""",16015,survey-multi-choice,11,10040343,26,60edecb2a22d916d2ed4a6f9,60ef459a02c3d2bec0f396ed,60edf7de15a0e195732ca8e0,60ef459a02c3d2bec0f396ed,"{""Q0"":""How frequently you think people try to achieve each goal."",""Q1"":""By selecting an option from a multiple choice scale.""}","[0,1]","""","""","""","""",""""
165,165,15,4,"[{""page_index"":0,""viewing_time"":3936}]",3936,instructions,12,10044283,26,60edecb2a22d916d2ed4a6f9,60ef459a02c3d2bec0f396ed,60edf7de15a0e195732ca8e0,60ef459a02c3d2bec0f396ed,"""","""","""","""","""","""",""""
166,166,15,4,"""",17911,survey-likert,13,10062200,26,60edecb2a22d916d2ed4a6f9,60ef459a02c3d2bec0f396ed,60edf7de15a0e195732ca8e0,60ef459a02c3d2bec0f396ed,"{""freq"":1}",[0],test,"""","""","""",""""
167,167,15,4,"""",11918,survey-likert,14,10074122,26,60edecb2a22d916d2ed4a6f9,60ef459a02c3d2bec0f396ed,60edf7de15a0e195732ca8e0,60ef459a02c3d2bec0f396ed,"{""freq"":4}",[0],test,"""","""","""",""""
168,168,15,4,"""",6935,survey-likert,15,10081063,26,60edecb2a22d916d2ed4a6f9,60ef459a02c3d2bec0f396ed,60edf7de15a0e195732ca8e0,60ef459a02c3d2bec0f396ed,"{""freq"":1}",[0],test,"""","""","""",""""
169,169,15,4,"""",7326,survey-likert,16,10088393,26,60edecb2a22d916d2ed4a6f9,60ef459a02c3d2bec0f396ed,60edf7de15a0e195732ca8e0,60ef459a02c3d2bec0f396ed,"{""freq"":2}",[0],test,"""","""","""",""""
170,170,15,4,"""",10881,survey-likert,17,10099280,26,60edecb2a22d916d2ed4a6f9,60ef459a02c3d2bec0f396ed,60edf7de15a0e195732ca8e0,60ef459a02c3d2bec0f396ed,"{""freq"":5}",[0],test,"""","""","""",""""
171,171,15,4,"""",7537,survey-likert,18,10106822,26,60edecb2a22d916d2ed4a6f9,60ef459a02c3d2bec0f396ed,60edf7de15a0e195732ca8e0,60ef459a02c3d2bec0f396ed,"{""freq"":4}",[0],test,"""","""","""",""""
172,172,15,4,"""",3014,survey-likert,19,10109843,26,60edecb2a22d916d2ed4a6f9,60ef459a02c3d2bec0f396ed,60edf7de15a0e195732ca8e0,60ef459a02c3d2bec0f396ed,"{""freq"":6}",[0],test,"""","""","""",""""
173,173,15,4,"""",117961,survey-text,20,10227821,26,60edecb2a22d916d2ed4a6f9,60ef459a02c3d2bec0f396ed,60edf7de15a0e195732ca8e0,60ef459a02c3d2bec0f396ed,"{""Q0"":""10"",""Q1"":""8"",""Q2"":""10"",""Q3"":""5"",""Q4"":""It would be nice to have a firth explanation if the goals are real, or can be thought of imaginatively. For example the under water fort goal. could you take this planning in the perspective of a child playing under water and just bring his legos under water? ""}","""","""","""","""","""",""""
174,174,22,2,"[{""page_index"":0,""viewing_time"":2015.3999999985099},{""page_index"":1,""viewing_time"":2111.60000000149},{""page_index"":2,""viewing_time"":10088.199999999255},{""page_index"":3,""viewing_time"":6767.599999997765},{""page_index"":4,""viewing_time"":2072}]",23055.6,instructions,0,23061,2,60edecb2a22d916d2ed4a6f9,60ef46abead8573daf000df4,5bd58aabc3d3ba0001f24c43,60ef46abead8573daf000df4,"""","""","""","""","""","""",""""
175,175,22,2,"""",8474.8,survey-multi-choice,1,31541,2,60edecb2a22d916d2ed4a6f9,60ef46abead8573daf000df4,5bd58aabc3d3ba0001f24c43,60ef46abead8573daf000df4,"{""Q0"":""Plans to achieve goals."",""Q1"":""By writing text.""}","[0,1]","""","""","""","""",""""
176,176,22,2,"[{""page_index"":0,""viewing_time"":1701.4000000022352}]",1701.6,instructions,2,33244,2,60edecb2a22d916d2ed4a6f9,60ef46abead8573daf000df4,5bd58aabc3d3ba0001f24c43,60ef46abead8573daf000df4,"""","""","""","""","""","""",""""
177,177,22,2,"""",232331.5,survey-text,3,265586,2,60edecb2a22d916d2ed4a6f9,60ef46abead8573daf000df4,5bd58aabc3d3ba0001f24c43,60ef46abead8573daf000df4,"{""Plan"":""Find a baseball and bat, find mitts for each player. Meet your friends at a baseball field, if possible, or in a large grassy area. Divide into two teams. Decide who is pitcher, catcher, 1st, 2nd and 3rd base. The kid(s) who know the rules explain the rules to everyone. Have fun playing.""}","""",test,Play baseball with your friends.,"""","""","generate, unconstrained"
178,178,22,2,"""",168891.2,survey-text,4,434480,2,60edecb2a22d916d2ed4a6f9,60ef46abead8573daf000df4,5bd58aabc3d3ba0001f24c43,60ef46abead8573daf000df4,"{""Plan"":""If you have air conditioning in the house or car turn it on when you are in the house or car. If no air conditioning, turn on fans to blow directly on your body. If there are no fans, put washcloths dipped in cold water on your neck, forehead, wrists, groin areas. Or fill a bathtub with lukewarm water and climb in.""}","""",test,Cool down in a record-breaking heat wave.,"""","""","generate, unconstrained"
179,179,22,2,"""",73034.9,survey-text,5,507520,2,60edecb2a22d916d2ed4a6f9,60ef46abead8573daf000df4,5bd58aabc3d3ba0001f24c43,60ef46abead8573daf000df4,"{""Plan"":""Find the dog's leash, atatch to dog's collar. Bring along a plastic bag  to pick up any poop your dog excretes.\nwalk outside with your dog.""}","""",test,Take your dog for a walk.,"""","""","generate, unconstrained"
180,180,22,2,"""",153347.9,survey-text,6,660871,2,60edecb2a22d916d2ed4a6f9,60ef46abead8573daf000df4,5bd58aabc3d3ba0001f24c43,60ef46abead8573daf000df4,"{""Plan"":""Speak with Mayor's campaign staff to find out what kind of help they are requesting.\nThey may ask you to contribute money, put up yard signs, attend rallys, call townspeople on phone to encourage them to vote. Speak to your friends and neighbors. Tell them why you think the Mayor is good for your town.""}","""",test,Help your local town mayor win re-election.,"""","""","generate, unconstrained"
181,181,22,2,"""",257129.4,survey-text,7,918004,2,60edecb2a22d916d2ed4a6f9,60ef46abead8573daf000df4,5bd58aabc3d3ba0001f24c43,60ef46abead8573daf000df4,"{""Plan"":""You will need a way to climb up onto the roof. Is there a stairway to the roof? You may need to rent a Genie lift large enough to carry the sofa. You will need at least one other person to help you lift and carry the sofa.\nTrying to use ladders would be a dangerous way to get to the roof. I fell off a ladder once and injured myself. I do Not recommend using ladders.""}","""",test,Get your sofa onto the roof of your house.,"""","""","generate, unconstrained"
182,182,22,2,"""",274770.8,survey-text,8,1192777,2,60edecb2a22d916d2ed4a6f9,60ef46abead8573daf000df4,5bd58aabc3d3ba0001f24c43,60ef46abead8573daf000df4,"{""Plan"":""Is the trophy actually behind the award case? Verify where the trophy actually is. Is there a door that can be opened?  If the trophy is behind a door, open the door. If the door is locked, look at the lock and google how to open that lock.\nIs there a surveilance camera pointed at the case? If so you need a person to spray foam on the camera so you won't be seen. You need another person to be a look out to warn if anyone is coming. You need a backpack or bag big enough to cover the award so it cannot be seen while you are carrying it. How will you get out of the school without being seen?""}","""",test,Steal the championship trophy from behind your school's award case.,"""","""","generate, unconstrained"
183,183,22,2,"""",254704.9,survey-text,9,1447486,2,60edecb2a22d916d2ed4a6f9,60ef46abead8573daf000df4,5bd58aabc3d3ba0001f24c43,60ef46abead8573daf000df4,"{""Plan"":""Find an UTube video about making shoes. Watch it several times, buy or borrow tools mentioned in video, and buy supplies like soles, recommended glue, thread and needle if mentioned in video, shoe laces, leather or canvas for making the upper part of the shoe. \nMake a pattern for shoe parts per UTube video. Cut out part then Follow instructions on video to assemble shoes.""}","""",test,Make a pair of new shoes.,"""","""","generate, unconstrained"
184,184,22,2,"[{""page_index"":0,""viewing_time"":2910.900000002235},{""page_index"":1,""viewing_time"":7471.89999999851}]",10383.1,instructions,10,1457870,2,60edecb2a22d916d2ed4a6f9,60ef46abead8573daf000df4,5bd58aabc3d3ba0001f24c43,60ef46abead8573daf000df4,"""","""","""","""","""","""",""""
185,185,22,2,"""",11325.8,survey-multi-choice,11,1469198,2,60edecb2a22d916d2ed4a6f9,60ef46abead8573daf000df4,5bd58aabc3d3ba0001f24c43,60ef46abead8573daf000df4,"{""Q0"":""How frequently you think people try to achieve each goal."",""Q1"":""By selecting an option from a multiple choice scale.""}","[0,1]","""","""","""","""",""""
186,186,22,2,"[{""page_index"":0,""viewing_time"":1358.5}]",1358.7,instructions,12,1470558,2,60edecb2a22d916d2ed4a6f9,60ef46abead8573daf000df4,5bd58aabc3d3ba0001f24c43,60ef46abead8573daf000df4,"""","""","""","""","""","""",""""
187,187,22,2,"""",13037.9,survey-likert,13,1483598,2,60edecb2a22d916d2ed4a6f9,60ef46abead8573daf000df4,5bd58aabc3d3ba0001f24c43,60ef46abead8573daf000df4,"{""freq"":2}",[0],test,"""","""","""",""""
188,188,22,2,"""",11869.9,survey-likert,14,1495470,2,60edecb2a22d916d2ed4a6f9,60ef46abead8573daf000df4,5bd58aabc3d3ba0001f24c43,60ef46abead8573daf000df4,"{""freq"":2}",[0],test,"""","""","""",""""
189,189,22,2,"""",11693,survey-likert,15,1507166,2,60edecb2a22d916d2ed4a6f9,60ef46abead8573daf000df4,5bd58aabc3d3ba0001f24c43,60ef46abead8573daf000df4,"{""freq"":2}",[0],test,"""","""","""",""""
190,190,22,2,"""",6566,survey-likert,16,1513733,2,60edecb2a22d916d2ed4a6f9,60ef46abead8573daf000df4,5bd58aabc3d3ba0001f24c43,60ef46abead8573daf000df4,"{""freq"":3}",[0],test,"""","""","""",""""
191,191,22,2,"""",10597.5,survey-likert,17,1524334,2,60edecb2a22d916d2ed4a6f9,60ef46abead8573daf000df4,5bd58aabc3d3ba0001f24c43,60ef46abead8573daf000df4,"{""freq"":4}",[0],test,"""","""","""",""""
192,192,22,2,"""",7366.1,survey-likert,18,1531702,2,60edecb2a22d916d2ed4a6f9,60ef46abead8573daf000df4,5bd58aabc3d3ba0001f24c43,60ef46abead8573daf000df4,"{""freq"":4}",[0],test,"""","""","""",""""
193,193,22,2,"""",4405.2,survey-likert,19,1536110,2,60edecb2a22d916d2ed4a6f9,60ef46abead8573daf000df4,5bd58aabc3d3ba0001f24c43,60ef46abead8573daf000df4,"{""freq"":4}",[0],test,"""","""","""",""""
194,194,22,2,"""",28756,survey-text,20,1564870,2,60edecb2a22d916d2ed4a6f9,60ef46abead8573daf000df4,5bd58aabc3d3ba0001f24c43,60ef46abead8573daf000df4,"{""Q0"":""yes"",""Q1"":""5"",""Q2"":""8"",""Q3"":""2"",""Q4"":""no""}","""","""","""","""","""",""""
195,195,26,3,"[{""page_index"":0,""viewing_time"":21665},{""page_index"":1,""viewing_time"":19508},{""page_index"":2,""viewing_time"":17823},{""page_index"":3,""viewing_time"":26450},{""page_index"":4,""viewing_time"":2646}]",88094,instructions,0,88103,20,60edecb2a22d916d2ed4a6f9,60ef4570184fda882598a997,60e2e63f8eabfe170fc49e66,60ef4570184fda882598a997,"""","""","""","""","""","""",""""
196,196,26,3,"""",12232,survey-multi-choice,1,100352,20,60edecb2a22d916d2ed4a6f9,60ef4570184fda882598a997,60e2e63f8eabfe170fc49e66,60ef4570184fda882598a997,"{""Q0"":""Plans to achieve goals."",""Q1"":""By writing text.""}","[0,1]","""","""","""","""",""""
197,197,26,3,"[{""page_index"":0,""viewing_time"":2148}]",2149,instructions,2,102504,20,60edecb2a22d916d2ed4a6f9,60ef4570184fda882598a997,60e2e63f8eabfe170fc49e66,60ef4570184fda882598a997,"""","""","""","""","""","""",""""
198,198,26,3,"""",291687,survey-text,3,394244,20,60edecb2a22d916d2ed4a6f9,60ef4570184fda882598a997,60e2e63f8eabfe170fc49e66,60ef4570184fda882598a997,"{""Plan"":""The plan would basically be to partner with a Not-for profit organization that focuses on creating awareness for environmental issues.The idea will then be sold to them that the greatest awareness that can be created would be to create a green revolution symbol using the statue of liberty. This will be achieved by adoring the statue with manufactured leaves an lighting during Christmas to form a giant Christmas tree and the symbol for Green awareness.""}","""",test,Decorate the world's largest Christmas tree.,"""","""","generate, unconstrained"
199,199,26,3,"""",84896,survey-text,4,479147,20,60edecb2a22d916d2ed4a6f9,60ef4570184fda882598a997,60e2e63f8eabfe170fc49e66,60ef4570184fda882598a997,"{""Plan"":""My plan is to simply get a chain saw and an axe, select the appropriate tree with adequate permission and extensive helping hand to do the job.""}","""",test,Cut down a tree.,"""","""","generate, unconstrained"
200,200,26,3,"""",78076,survey-text,5,557237,20,60edecb2a22d916d2ed4a6f9,60ef4570184fda882598a997,60e2e63f8eabfe170fc49e66,60ef4570184fda882598a997,"{""Plan"":""My plan is to make my order online for a home delivery. I will use google translate to get the right words to use in navigating my way through the various menu and get to my desired meal.\n""}","""",test,"Order food in a restaurant, where you don't speak the native language.","""","""","generate, unconstrained"
201,201,26,3,"""",68951,survey-text,6,626195,20,60edecb2a22d916d2ed4a6f9,60ef4570184fda882598a997,60e2e63f8eabfe170fc49e66,60ef4570184fda882598a997,"{""Plan"":""My plan is to tie a very strong rope to the head of my canoe and attach the opposite end to a strong three on either side of the water flow.""}","""",test,Stop your canoe from falling down the waterfall.,"""","""","generate, unconstrained"
202,202,26,3,"""",71947,survey-text,7,698152,20,60edecb2a22d916d2ed4a6f9,60ef4570184fda882598a997,60e2e63f8eabfe170fc49e66,60ef4570184fda882598a997,"{""Plan"":""I will do dies by presenting some monkey tricks; like dancing in a circle,clapping of hands and swinging huge leaves, etc.""}","""",test,Keep a baby platupyus entertained.,"""","""","generate, unconstrained"
203,203,26,3,"""",69563,survey-text,8,767720,20,60edecb2a22d916d2ed4a6f9,60ef4570184fda882598a997,60e2e63f8eabfe170fc49e66,60ef4570184fda882598a997,"{""Plan"":""I will tame the lion with a tranquilizer and wait for it to fall asleep. After this, i open it's mouth and remove the plaque.""}","""",test,Remove plaque from the teeth of a lion.,"""","""","generate, unconstrained"
204,204,26,3,"""",82227,survey-text,9,849959,20,60edecb2a22d916d2ed4a6f9,60ef4570184fda882598a997,60e2e63f8eabfe170fc49e66,60ef4570184fda882598a997,"{""Plan"":""I will get some wood from the local carpenter; get an appropriate design online and build accordingly, with the help of neighbors and friends.""}","""",test,Build a bookshelf.,"""","""","generate, unconstrained"
205,205,26,3,"[{""page_index"":0,""viewing_time"":3004},{""page_index"":1,""viewing_time"":9326}]",12330,instructions,10,862293,20,60edecb2a22d916d2ed4a6f9,60ef4570184fda882598a997,60e2e63f8eabfe170fc49e66,60ef4570184fda882598a997,"""","""","""","""","""","""",""""
206,206,26,3,"""",17815,survey-multi-choice,11,880117,20,60edecb2a22d916d2ed4a6f9,60ef4570184fda882598a997,60e2e63f8eabfe170fc49e66,60ef4570184fda882598a997,"{""Q0"":""How frequently you think people try to achieve each goal."",""Q1"":""By selecting an option from a multiple choice scale.""}","[0,1]","""","""","""","""",""""
207,207,26,3,"[{""page_index"":0,""viewing_time"":2457}]",2458,instructions,12,882578,20,60edecb2a22d916d2ed4a6f9,60ef4570184fda882598a997,60e2e63f8eabfe170fc49e66,60ef4570184fda882598a997,"""","""","""","""","""","""",""""
208,208,26,3,"""",23538,survey-likert,13,906125,20,60edecb2a22d916d2ed4a6f9,60ef4570184fda882598a997,60e2e63f8eabfe170fc49e66,60ef4570184fda882598a997,"{""freq"":2}",[0],test,"""","""","""",""""
209,209,26,3,"""",8341,survey-likert,14,914470,20,60edecb2a22d916d2ed4a6f9,60ef4570184fda882598a997,60e2e63f8eabfe170fc49e66,60ef4570184fda882598a997,"{""freq"":0}",[0],test,"""","""","""",""""
210,210,26,3,"""",5176,survey-likert,15,919655,20,60edecb2a22d916d2ed4a6f9,60ef4570184fda882598a997,60e2e63f8eabfe170fc49e66,60ef4570184fda882598a997,"{""freq"":2}",[0],test,"""","""","""",""""
211,211,26,3,"""",9541,survey-likert,16,929203,20,60edecb2a22d916d2ed4a6f9,60ef4570184fda882598a997,60e2e63f8eabfe170fc49e66,60ef4570184fda882598a997,"{""freq"":3}",[0],test,"""","""","""",""""
212,212,26,3,"""",12044,survey-likert,17,941255,20,60edecb2a22d916d2ed4a6f9,60ef4570184fda882598a997,60e2e63f8eabfe170fc49e66,60ef4570184fda882598a997,"{""freq"":5}",[0],test,"""","""","""",""""
213,213,26,3,"""",10055,survey-likert,18,951315,20,60edecb2a22d916d2ed4a6f9,60ef4570184fda882598a997,60e2e63f8eabfe170fc49e66,60ef4570184fda882598a997,"{""freq"":5}",[0],test,"""","""","""",""""
214,214,26,3,"""",5390,survey-likert,19,956713,20,60edecb2a22d916d2ed4a6f9,60ef4570184fda882598a997,60e2e63f8eabfe170fc49e66,60ef4570184fda882598a997,"{""freq"":2}",[0],test,"""","""","""",""""
215,215,26,3,"""",31856,survey-text,20,988581,20,60edecb2a22d916d2ed4a6f9,60ef4570184fda882598a997,60e2e63f8eabfe170fc49e66,60ef4570184fda882598a997,"{""Q0"":""10"",""Q1"":""7"",""Q2"":""9"",""Q3"":""2"",""Q4"":""None""}","""","""","""","""","""",""""
216,216,24,4,"[{""page_index"":0,""viewing_time"":8573},{""page_index"":1,""viewing_time"":4499},{""page_index"":2,""viewing_time"":103165},{""page_index"":3,""viewing_time"":8926},{""page_index"":4,""viewing_time"":1743}]",126906,instructions,0,126911,10,60edecb2a22d916d2ed4a6f9,60ef479c24d89043d3263a06,5f3c44ac99a44da7cb3eb601,60ef479c24d89043d3263a06,"""","""","""","""","""","""",""""
217,217,24,4,"""",5582,survey-multi-choice,1,132499,10,60edecb2a22d916d2ed4a6f9,60ef479c24d89043d3263a06,5f3c44ac99a44da7cb3eb601,60ef479c24d89043d3263a06,"{""Q0"":""Plans to achieve goals."",""Q1"":""By writing text.""}","[0,1]","""","""","""","""",""""
218,218,24,4,"[{""page_index"":0,""viewing_time"":1422}]",1423,instructions,2,133923,10,60edecb2a22d916d2ed4a6f9,60ef479c24d89043d3263a06,5f3c44ac99a44da7cb3eb601,60ef479c24d89043d3263a06,"""","""","""","""","""","""",""""
219,219,24,4,"""",246540,survey-text,3,380466,10,60edecb2a22d916d2ed4a6f9,60ef479c24d89043d3263a06,5f3c44ac99a44da7cb3eb601,60ef479c24d89043d3263a06,"{""Plan"":""create a conrete structure with a base on a large military ship, use a crane to lift and drop it into the water""}","""",test,Make a fort underwater.,"""","""","generate, unconstrained"
220,220,24,4,"""",117092,survey-text,4,497584,10,60edecb2a22d916d2ed4a6f9,60ef479c24d89043d3263a06,5f3c44ac99a44da7cb3eb601,60ef479c24d89043d3263a06,"{""Plan"":""scrape them, place them in warm soapy water and scrub, then place in tub of cool water for 30+ seconds, then place into a sink full of water and sanitizer for a few minutes. air dry.""}","""",test,Clean the dirty dishes.,"""","""","generate, unconstrained"
221,221,24,4,"""",176736,survey-text,5,674328,10,60edecb2a22d916d2ed4a6f9,60ef479c24d89043d3263a06,5f3c44ac99a44da7cb3eb601,60ef479c24d89043d3263a06,"{""Plan"":""place a large piece of bait just outside the cove and obsever results from underwater camera""}","""",test,Find out how many sharks live in a cove off a nearby coast.,"""","""","generate, unconstrained"
222,222,24,4,"""",89555,survey-text,6,763887,10,60edecb2a22d916d2ed4a6f9,60ef479c24d89043d3263a06,5f3c44ac99a44da7cb3eb601,60ef479c24d89043d3263a06,"{""Plan"":""jack up the car next to the appropriate tire, unscrew the bolts, remove tire and replace it with spare, screw in all of the bolts, release the jack""}","""",test,Fix a flat tire.,"""","""","generate, unconstrained"
223,223,24,4,"""",316629,survey-text,7,1080525,10,60edecb2a22d916d2ed4a6f9,60ef479c24d89043d3263a06,5f3c44ac99a44da7cb3eb601,60ef479c24d89043d3263a06,"{""Plan"":""have 4+drones on standbyto fly an outstretched net up toward skydiver, meet their speed and allow them to land in the net, then slowly lowering to safety""}","""",test,Create a safe landing for a falling skydiver.,"""","""","generate, unconstrained"
224,224,24,4,"""",36992,survey-text,8,1117520,10,60edecb2a22d916d2ed4a6f9,60ef479c24d89043d3263a06,5f3c44ac99a44da7cb3eb601,60ef479c24d89043d3263a06,"{""Plan"":""grab fire extinguisher and use it on the affected area""}","""",test,Put out a fire that started near the wires from your TV.,"""","""","generate, unconstrained"
225,225,24,4,"""",28608,survey-text,9,1146132,10,60edecb2a22d916d2ed4a6f9,60ef479c24d89043d3263a06,5f3c44ac99a44da7cb3eb601,60ef479c24d89043d3263a06,"{""Plan"":""research the water and light needs of each individual plant and care for them accordingly""}","""",test,Keep the plants in your garden alive.,"""","""","generate, unconstrained"
226,226,24,4,"[{""page_index"":0,""viewing_time"":2558},{""page_index"":1,""viewing_time"":22936.000000000233}]",25495,instructions,10,1171629,10,60edecb2a22d916d2ed4a6f9,60ef479c24d89043d3263a06,5f3c44ac99a44da7cb3eb601,60ef479c24d89043d3263a06,"""","""","""","""","""","""",""""
227,227,24,4,"""",11596,survey-multi-choice,11,1183229,10,60edecb2a22d916d2ed4a6f9,60ef479c24d89043d3263a06,5f3c44ac99a44da7cb3eb601,60ef479c24d89043d3263a06,"{""Q0"":""How frequently you think people try to achieve each goal."",""Q1"":""By selecting an option from a multiple choice scale.""}","[0,1]","""","""","""","""",""""
228,228,24,4,"[{""page_index"":0,""viewing_time"":1362}]",1362,instructions,12,1184594,10,60edecb2a22d916d2ed4a6f9,60ef479c24d89043d3263a06,5f3c44ac99a44da7cb3eb601,60ef479c24d89043d3263a06,"""","""","""","""","""","""",""""
229,229,24,4,"""",17259,survey-likert,13,1201857,10,60edecb2a22d916d2ed4a6f9,60ef479c24d89043d3263a06,5f3c44ac99a44da7cb3eb601,60ef479c24d89043d3263a06,"{""freq"":5}",[0],test,"""","""","""",""""
230,230,24,4,"""",3407,survey-likert,14,1205267,10,60edecb2a22d916d2ed4a6f9,60ef479c24d89043d3263a06,5f3c44ac99a44da7cb3eb601,60ef479c24d89043d3263a06,"{""freq"":0}",[0],test,"""","""","""",""""
231,231,24,4,"""",13967,survey-likert,15,1219238,10,60edecb2a22d916d2ed4a6f9,60ef479c24d89043d3263a06,5f3c44ac99a44da7cb3eb601,60ef479c24d89043d3263a06,"{""freq"":3}",[0],test,"""","""","""",""""
232,232,24,4,"""",4706,survey-likert,16,1223946,10,60edecb2a22d916d2ed4a6f9,60ef479c24d89043d3263a06,5f3c44ac99a44da7cb3eb601,60ef479c24d89043d3263a06,"{""freq"":2}",[0],test,"""","""","""",""""
233,233,24,4,"""",5374,survey-likert,17,1229324,10,60edecb2a22d916d2ed4a6f9,60ef479c24d89043d3263a06,5f3c44ac99a44da7cb3eb601,60ef479c24d89043d3263a06,"{""freq"":3}",[0],test,"""","""","""",""""
234,234,24,4,"""",8975,survey-likert,18,1238301,10,60edecb2a22d916d2ed4a6f9,60ef479c24d89043d3263a06,5f3c44ac99a44da7cb3eb601,60ef479c24d89043d3263a06,"{""freq"":3}",[0],test,"""","""","""",""""
235,235,24,4,"""",3601,survey-likert,19,1241906,10,60edecb2a22d916d2ed4a6f9,60ef479c24d89043d3263a06,5f3c44ac99a44da7cb3eb601,60ef479c24d89043d3263a06,"{""freq"":1}",[0],test,"""","""","""",""""
236,236,24,4,"""",23501,survey-text,20,1265422,10,60edecb2a22d916d2ed4a6f9,60ef479c24d89043d3263a06,5f3c44ac99a44da7cb3eb601,60ef479c24d89043d3263a06,"{""Q0"":""10"",""Q1"":""5"",""Q2"":""8"",""Q3"":""1"",""Q4"":""}","""","""","""","""","""",""""
237,237,23,1,"[{""page_index"":0,""viewing_time"":12589},{""page_index"":1,""viewing_time"":22049},{""page_index"":2,""viewing_time"":48931},{""page_index"":3,""viewing_time"":14152},{""page_index"":4,""viewing_time"":5264}]",102986,instructions,0,102989,12,60edecb2a22d916d2ed4a6f9,60ef46d2c9bf9e42a54cc3ab,5f938b221caf5917564aca02,60ef46d2c9bf9e42a54cc3ab,"""","""","""","""","""","""",""""
238,238,23,1,"""",11677,survey-multi-choice,1,114670,12,60edecb2a22d916d2ed4a6f9,60ef46d2c9bf9e42a54cc3ab,5f938b221caf5917564aca02,60ef46d2c9bf9e42a54cc3ab,"{""Q0"":""Plans to achieve goals."",""Q1"":""By writing text.""}","[0,1]","""","""","""","""",""""
239,239,23,1,"[{""page_index"":0,""viewing_time"":2682}]",2682,instructions,2,117354,12,60edecb2a22d916d2ed4a6f9,60ef46d2c9bf9e42a54cc3ab,5f938b221caf5917564aca02,60ef46d2c9bf9e42a54cc3ab,"""","""","""","""","""","""",""""
240,240,23,1,"""",138696,survey-text,3,256055,12,60edecb2a22d916d2ed4a6f9,60ef46d2c9bf9e42a54cc3ab,5f938b221caf5917564aca02,60ef46d2c9bf9e42a54cc3ab,"{""Plan"":""Buy paint and primer and a paint brush, then open the primer can and mix. Pour primer into the pail and dip the paint brush into the paint, then do up and down strokes until all of the fence is covered. Wait for primer to dry, then repeat with paint. ""}","""",test,Paint a fence.,"""","""","generate, unconstrained"
241,241,23,1,"""",91433,survey-text,4,347492,12,60edecb2a22d916d2ed4a6f9,60ef46d2c9bf9e42a54cc3ab,5f938b221caf5917564aca02,60ef46d2c9bf9e42a54cc3ab,"{""Plan"":""Tell a six foot tall man to stand inside of a six foot deep hole. Jump over the hole.""}","""",test,Jump over a six foot tall man.,"""","""","generate, unconstrained"
242,242,23,1,"""",235380,survey-text,5,582874,12,60edecb2a22d916d2ed4a6f9,60ef46d2c9bf9e42a54cc3ab,5f938b221caf5917564aca02,60ef46d2c9bf9e42a54cc3ab,"{""Plan"":""Put signs up saying that hunting deer in that forest is a 5000$ fine and liable to up to 3 years in prison, then hire several dozen park rangers to patrol the forest throughout the duration of hunting season.""}","""",test,Protect the deer in your nearby woods during hunting season.,"""","""","generate, unconstrained"
243,243,23,1,"""",107949,survey-text,6,690826,12,60edecb2a22d916d2ed4a6f9,60ef46d2c9bf9e42a54cc3ab,5f938b221caf5917564aca02,60ef46d2c9bf9e42a54cc3ab,"{""Plan"":""Get an easy bake cake mix, then follow the instruction on the package before putting the concoction into the oven and baking it.""}","""",test,Bake a cake.,"""","""","generate, unconstrained"
244,244,23,1,"""",110672,survey-text,7,801500,12,60edecb2a22d916d2ed4a6f9,60ef46d2c9bf9e42a54cc3ab,5f938b221caf5917564aca02,60ef46d2c9bf9e42a54cc3ab,"{""Plan"":""Bang on the door to try and get the nearest person's attention. Tell them to get help. If not, get help yourself by pulling out your cell phone and calling 911. After awhile, cops should come and free you from the closet. If they don't then try lockpicking. If you don't know how to lockpick, try to find a screwdriver inside of the closet and unscrew the handle.""}","""",test,Escape from inside a locked custodial closet.,"""","""","generate, unconstrained"
245,245,23,1,"""",62561,survey-text,8,864064,12,60edecb2a22d916d2ed4a6f9,60ef46d2c9bf9e42a54cc3ab,5f938b221caf5917564aca02,60ef46d2c9bf9e42a54cc3ab,"{""Plan"":""Lie on your back in order to float, and try to find something to grab onto so you can pull yourself out. If not, then kick slowly to propel yourself out of the quicksand.""}","""",test,Escape quicksand.,"""","""","generate, unconstrained"
246,246,23,1,"""",247229,survey-text,9,1111296,12,60edecb2a22d916d2ed4a6f9,60ef46d2c9bf9e42a54cc3ab,5f938b221caf5917564aca02,60ef46d2c9bf9e42a54cc3ab,"{""Plan"":""Hire a team of 1000 people to work on the float with you. Brainstorm a well-known mascot of a cartoon to construct, then figure out how to construct plastic together to form the mascot's distinct shape. After that, you and your people get to work, and use a bunch of balloon inflaters to blow it up. Then, you make a stunt team out of the most athletic of your troupe and dazzle the crowd at the Macy's Day Parade.""}","""",test,Build a float to dazzle the crowd at the Macy's Day Parade.,"""","""","generate, unconstrained"
247,247,23,1,"[{""page_index"":0,""viewing_time"":3338},{""page_index"":1,""viewing_time"":12398}]",15736,instructions,10,1127033,12,60edecb2a22d916d2ed4a6f9,60ef46d2c9bf9e42a54cc3ab,5f938b221caf5917564aca02,60ef46d2c9bf9e42a54cc3ab,"""","""","""","""","""","""",""""
248,248,23,1,"""",6364,survey-multi-choice,11,1133400,12,60edecb2a22d916d2ed4a6f9,60ef46d2c9bf9e42a54cc3ab,5f938b221caf5917564aca02,60ef46d2c9bf9e42a54cc3ab,"{""Q0"":""How frequently you think people try to achieve each goal."",""Q1"":""By selecting an option from a multiple choice scale.""}","[0,1]","""","""","""","""",""""
249,249,23,1,"[{""page_index"":0,""viewing_time"":1938}]",1938,instructions,12,1135339,12,60edecb2a22d916d2ed4a6f9,60ef46d2c9bf9e42a54cc3ab,5f938b221caf5917564aca02,60ef46d2c9bf9e42a54cc3ab,"""","""","""","""","""","""",""""
250,250,23,1,"""",12065,survey-likert,13,1147407,12,60edecb2a22d916d2ed4a6f9,60ef46d2c9bf9e42a54cc3ab,5f938b221caf5917564aca02,60ef46d2c9bf9e42a54cc3ab,"{""freq"":1}",[0],test,"""","""","""",""""
251,251,23,1,"""",12023,survey-likert,14,1159431,12,60edecb2a22d916d2ed4a6f9,60ef46d2c9bf9e42a54cc3ab,5f938b221caf5917564aca02,60ef46d2c9bf9e42a54cc3ab,"{""freq"":3}",[0],test,"""","""","""",""""
252,252,23,1,"""",5759,survey-likert,15,1165193,12,60edecb2a22d916d2ed4a6f9,60ef46d2c9bf9e42a54cc3ab,5f938b221caf5917564aca02,60ef46d2c9bf9e42a54cc3ab,"{""freq"":3}",[0],test,"""","""","""",""""
253,253,23,1,"""",8522,survey-likert,16,1173716,12,60edecb2a22d916d2ed4a6f9,60ef46d2c9bf9e42a54cc3ab,5f938b221caf5917564aca02,60ef46d2c9bf9e42a54cc3ab,"{""freq"":2}",[0],test,"""","""","""",""""
254,254,23,1,"""",4757,survey-likert,17,1178475,12,60edecb2a22d916d2ed4a6f9,60ef46d2c9bf9e42a54cc3ab,5f938b221caf5917564aca02,60ef46d2c9bf9e42a54cc3ab,"{""freq"":3}",[0],test,"""","""","""",""""
255,255,23,1,"""",15702,survey-likert,18,1194181,12,60edecb2a22d916d2ed4a6f9,60ef46d2c9bf9e42a54cc3ab,5f938b221caf5917564aca02,60ef46d2c9bf9e42a54cc3ab,"{""freq"":4}",[0],test,"""","""","""",""""
256,256,23,1,"""",6855,survey-likert,19,1201038,12,60edecb2a22d916d2ed4a6f9,60ef46d2c9bf9e42a54cc3ab,5f938b221caf5917564aca02,60ef46d2c9bf9e42a54cc3ab,"{""freq"":4}",[0],test,"""","""","""",""""
257,257,23,1,"""",30551,survey-text,20,1231592,12,60edecb2a22d916d2ed4a6f9,60ef46d2c9bf9e42a54cc3ab,5f938b221caf5917564aca02,60ef46d2c9bf9e42a54cc3ab,"{""Q0"":""10"",""Q1"":""8"",""Q2"":""10"",""Q3"":""5"",""Q4"":""}","""","""","""","""","""",""""
258,279,29,2,"[{""page_index"":0,""viewing_time"":10785.939999999755},{""page_index"":1,""viewing_time"":4816.765000000487},{""page_index"":2,""viewing_time"":8694.359999999506},{""page_index"":3,""viewing_time"":7131.595000000743},{""page_index"":4,""viewing_time"":1870.1249999994616}]",33301.505,instructions,0,33340,1,60edecb2a22d916d2ed4a6f9,60ef5106107b4758c392e192,5b9c8730cc5dd000016637d9,60ef5106107b4758c392e192,"""","""","""","""","""","""",""""
259,280,29,2,"""",8729.42,survey-multi-choice,1,42082,1,60edecb2a22d916d2ed4a6f9,60ef5106107b4758c392e192,5b9c8730cc5dd000016637d9,60ef5106107b4758c392e192,"{""Q0"":""Plans to achieve goals."",""Q1"":""By writing text.""}","[0,1]","""","""","""","""",""""
260,281,29,2,"[{""page_index"":0,""viewing_time"":1290.6250000005457}]",1291.29,instructions,2,43378,1,60edecb2a22d916d2ed4a6f9,60ef5106107b4758c392e192,5b9c8730cc5dd000016637d9,60ef5106107b4758c392e192,"""","""","""","""","""","""",""""
261,282,29,2,"""",58445.155,survey-text,3,101851,1,60edecb2a22d916d2ed4a6f9,60ef5106107b4758c392e192,5b9c8730cc5dd000016637d9,60ef5106107b4758c392e192,"{""Plan"":""Make sure to stock up on ice and to keep a good cooler and a deep freezer. To always stay hydrated. Stock up on bottled water.""}","""",test,Cool down in a record-breaking heat wave.,"""","""","generate, unconstrained"
262,283,29,2,"""",44437.22,survey-text,4,146298,1,60edecb2a22d916d2ed4a6f9,60ef5106107b4758c392e192,5b9c8730cc5dd000016637d9,60ef5106107b4758c392e192,"{""Plan"":""I would cause a distraction from the principal or anyone in charge and have someone help steal it during a class hours.""}","""",test,Steal the championship trophy from behind your school's award case.,"""","""","generate, unconstrained"
263,284,29,2,"""",28831.49,survey-text,5,175145,1,60edecb2a22d916d2ed4a6f9,60ef5106107b4758c392e192,5b9c8730cc5dd000016637d9,60ef5106107b4758c392e192,"{""Plan"":""I will plan to carry water for hydration and a leash then plan my route to exit.""}","""",test,Take your dog for a walk.,"""","""","generate, unconstrained"
264,285,29,2,"""",96597.56,survey-text,6,271754,1,60edecb2a22d916d2ed4a6f9,60ef5106107b4758c392e192,5b9c8730cc5dd000016637d9,60ef5106107b4758c392e192,"{""Plan"":""I will make a list of high traffic sources to have signs and put out flyers. Hire people to send notes or flyers to houses. Get so much advertisement billboards so people will notice everyday.""}","""",test,Help your local town mayor win re-election.,"""","""","generate, unconstrained"
265,286,29,2,"""",87984.28,survey-text,7,359760,1,60edecb2a22d916d2ed4a6f9,60ef5106107b4758c392e192,5b9c8730cc5dd000016637d9,60ef5106107b4758c392e192,"{""Plan"":""Start by searching the materials used for shoes. buy those materials and find a video that shows step by step demonstration to making a shoe. There will be trial and error but keep practicing to get the perfect shoe.""}","""",test,Make a pair of new shoes.,"""","""","generate, unconstrained"
266,287,29,2,"""",35151.965,survey-text,8,394919,1,60edecb2a22d916d2ed4a6f9,60ef5106107b4758c392e192,5b9c8730cc5dd000016637d9,60ef5106107b4758c392e192,"{""Plan"":""Gather gear for the game and decide on a time to start. Arrive on time and play""}","""",test,Play baseball with your friends.,"""","""","generate, unconstrained"
267,288,29,2,"""",29332.73,survey-text,9,424260,1,60edecb2a22d916d2ed4a6f9,60ef5106107b4758c392e192,5b9c8730cc5dd000016637d9,60ef5106107b4758c392e192,"{""Plan"":""The easiest way would be a crane but it would be costly.""}","""",test,Get your sofa onto the roof of your house.,"""","""","generate, unconstrained"
268,289,29,2,"[{""page_index"":0,""viewing_time"":2377.480000000098},{""page_index"":1,""viewing_time"":13216.244999999588}]",15594.78,instructions,10,439856,1,60edecb2a22d916d2ed4a6f9,60ef5106107b4758c392e192,5b9c8730cc5dd000016637d9,60ef5106107b4758c392e192,"""","""","""","""","""","""",""""
269,290,29,2,"""",15030.62,survey-multi-choice,11,454894,1,60edecb2a22d916d2ed4a6f9,60ef5106107b4758c392e192,5b9c8730cc5dd000016637d9,60ef5106107b4758c392e192,"{""Q0"":""How frequently you think people try to achieve each goal."",""Q1"":""By writing text.""}","[0,1]","""","""","""","""",""""
270,291,29,2,"[{""page_index"":0,""viewing_time"":1209.6550000005518},{""page_index"":1,""viewing_time"":4834.799999999639}]",6045.065,instructions,12,460941,1,60edecb2a22d916d2ed4a6f9,60ef5106107b4758c392e192,5b9c8730cc5dd000016637d9,60ef5106107b4758c392e192,"""","""","""","""","""","""",""""
271,292,29,2,"""",4470.115,survey-multi-choice,13,465418,1,60edecb2a22d916d2ed4a6f9,60ef5106107b4758c392e192,5b9c8730cc5dd000016637d9,60ef5106107b4758c392e192,"{""Q0"":""How frequently you think people try to achieve each goal."",""Q1"":""By selecting an option from a multiple choice scale.""}","[0,1]","""","""","""","""",""""
272,293,29,2,"[{""page_index"":0,""viewing_time"":58043.24999999971}]",58043.83,instructions,14,523464,1,60edecb2a22d916d2ed4a6f9,60ef5106107b4758c392e192,5b9c8730cc5dd000016637d9,60ef5106107b4758c392e192,"""","""","""","""","""","""",""""
273,294,29,2,"""",11531.63,survey-likert,15,535005,1,60edecb2a22d916d2ed4a6f9,60ef5106107b4758c392e192,5b9c8730cc5dd000016637d9,60ef5106107b4758c392e192,"{""freq"":2}",[0],test,"""","""","""",""""
274,295,29,2,"""",5508.375,survey-likert,16,540518,1,60edecb2a22d916d2ed4a6f9,60ef5106107b4758c392e192,5b9c8730cc5dd000016637d9,60ef5106107b4758c392e192,"{""freq"":5}",[0],test,"""","""","""",""""
275,296,29,2,"""",2712.825,survey-likert,17,543243,1,60edecb2a22d916d2ed4a6f9,60ef5106107b4758c392e192,5b9c8730cc5dd000016637d9,60ef5106107b4758c392e192,"{""freq"":0}",[0],test,"""","""","""",""""
276,297,29,2,"""",37300.855,survey-likert,18,580550,1,60edecb2a22d916d2ed4a6f9,60ef5106107b4758c392e192,5b9c8730cc5dd000016637d9,60ef5106107b4758c392e192,"{""freq"":1}",[0],test,"""","""","""",""""
277,298,29,2,"""",8578.24,survey-likert,19,589136,1,60edecb2a22d916d2ed4a6f9,60ef5106107b4758c392e192,5b9c8730cc5dd000016637d9,60ef5106107b4758c392e192,"{""freq"":2}",[0],test,"""","""","""",""""
278,299,29,2,"""",2651.445,survey-likert,20,591795,1,60edecb2a22d916d2ed4a6f9,60ef5106107b4758c392e192,5b9c8730cc5dd000016637d9,60ef5106107b4758c392e192,"{""freq"":2}",[0],test,"""","""","""",""""
279,300,29,2,"""",6582.45,survey-likert,21,598386,1,60edecb2a22d916d2ed4a6f9,60ef5106107b4758c392e192,5b9c8730cc5dd000016637d9,60ef5106107b4758c392e192,"{""freq"":4}",[0],test,"""","""","""",""""
280,301,29,2,"""",22938.73,survey-text,22,621335,1,60edecb2a22d916d2ed4a6f9,60ef5106107b4758c392e192,5b9c8730cc5dd000016637d9,60ef5106107b4758c392e192,"{""Q0"":""10"",""Q1"":""2"",""Q2"":""3"",""Q3"":""1"",""Q4"":""}","""","""","""","""","""",""""
281,302,3,1,"[{""page_index"":0,""viewing_time"":8775.710000190884},{""page_index"":1,""viewing_time"":11123.334999894723},{""page_index"":2,""viewing_time"":899458.520000102},{""page_index"":3,""viewing_time"":13911.444999976084},{""page_index"":4,""viewing_time"":1483.4600000176579}]",934754.73,instructions,0,934800,28,60edecb2a22d916d2ed4a6f9,60ef31d6d180873bc4fa7881,60eeda93f77dbf4e76adc5bd,60ef31d6d180873bc4fa7881,"""","""","""","""","""","""",""""
282,303,3,1,"""",11711.23,survey-multi-choice,1,946519,28,60edecb2a22d916d2ed4a6f9,60ef31d6d180873bc4fa7881,60eeda93f77dbf4e76adc5bd,60ef31d6d180873bc4fa7881,"{""Q0"":""Plans to achieve goals."",""Q1"":""By writing text.""}","[0,1]","""","""","""","""",""""
283,304,3,1,"[{""page_index"":0,""viewing_time"":2222.7549999952316}]",2223.03,instructions,2,948744,28,60edecb2a22d916d2ed4a6f9,60ef31d6d180873bc4fa7881,60eeda93f77dbf4e76adc5bd,60ef31d6d180873bc4fa7881,"""","""","""","""","""","""",""""
284,305,3,1,"""",130035.795,survey-text,3,1078797,28,60edecb2a22d916d2ed4a6f9,60ef31d6d180873bc4fa7881,60eeda93f77dbf4e76adc5bd,60ef31d6d180873bc4fa7881,"{""Plan"":""In order to bake a cake, first, you need to select a recipe for the cake you wish to make. After selecting your recipe, make a list of required ingredients. Gather your ingredients and tools such as measuring cups and spoons, scales if using, baking pan and paper etc. Follow the steps in the recipe to prepare your cake batter. Bake the cake in your prepared oven. Take a picture of your cake to remember the moment!""}","""",test,Bake a cake.,"""","""","generate, unconstrained"
285,306,3,1,"""",165444.96,survey-text,4,1244265,28,60edecb2a22d916d2ed4a6f9,60ef31d6d180873bc4fa7881,60eeda93f77dbf4e76adc5bd,60ef31d6d180873bc4fa7881,"{""Plan"":""Procure a flat bed trailer, this will be the base of the float.\nDecide on the theme of your float. Make a sketch of what the finished product will look like, taking special note of what materials you will use for each part of the float.\nRecruit a few friends to help make the float.\nStart to build the float using your gathered materials.\nDon't forget to add a celebrity to ride on your float, Marvel superheroes are very in right now so try to grab Scarlett Johansen.\nEnjoy the parade!""}","""",test,Build a float to dazzle the crowd at the Macy's Day Parade.,"""","""","generate, unconstrained"
286,307,3,1,"""",184797.545,survey-text,5,1429078,28,60edecb2a22d916d2ed4a6f9,60ef31d6d180873bc4fa7881,60eeda93f77dbf4e76adc5bd,60ef31d6d180873bc4fa7881,"{""Plan"":""Gather your materials, paint and brushes along with cleaning supplies.\nClean the fence first, repair and sand where needed.\nPaint the face of the fence, one bar at a time using even and smooth strokes. \nMusic will help the process go a bit faster.\nKeep painting until the faces of each bar has a good first, even coat. \nMove to the back of the fence, taking special note of the support braces so as to not gather globs of paint.\nContinue the painting process until the first coat has been applied to the front and back of the fence.\nDrink lemonade.\nRepeat the process with a second coat.\nEnjoy the painted fence!""}","""",test,Paint a fence.,"""","""","generate, unconstrained"
287,308,3,1,"""",313608.98,survey-text,6,1742712,28,60edecb2a22d916d2ed4a6f9,60ef31d6d180873bc4fa7881,60eeda93f77dbf4e76adc5bd,60ef31d6d180873bc4fa7881,"{""Plan"":""This goal can be accomplished in three phases.\nPhase 1:\nWork on your leg strength and conditioning. Hit the gym for weighted leg work outs including weighted squats, deadlifts and leg press. Aim to hit the weights 3-4 times a week, progressively adding more weight each time. This phase should last 4 weeks.\nPhase 2:\nFast-twitch muscle conditioning. Build up your fast-twitch muscles with sprints and agility training. Think NFL training camp style workouts. This phase should last 4 weeks.\nPhase 3:\nBox jumps. Put your training to task and practice using your new leg strength and fast-twitch muscles by starting with you box jumps. Start small and add more height to your box jumps. Take the marathon training approach to this phase and train to jump HIGHER than 6 feet two weeks before the scheduled jump and then taper the training off to allow for full muscle strength on jump day.\nJUMP DAY! Soar to great heights my friend! ""}","""",test,Jump over a six foot tall man.,"""","""","generate, unconstrained"
288,309,3,1,"""",153851.175,survey-text,7,1896580,28,60edecb2a22d916d2ed4a6f9,60ef31d6d180873bc4fa7881,60eeda93f77dbf4e76adc5bd,60ef31d6d180873bc4fa7881,"{""Plan"":""Take a deep breath.\nFind something you can use for leverage, a mop handle or scrap wood will work great.\nTake what you have found and wedge it between the door and the door casing, closer to the handle the better.\nPut your feet on the walls to allow yourself to use full bosy strength on the lever and pull, pull pull. Use the adreline rush to pull until the door finally pops open.\nAlternate plan, slide a note under the door asking for someone walking by to open the door.""}","""",test,Escape from inside a locked custodial closet.,"""","""","generate, unconstrained"
289,310,3,1,"""",109265.21,survey-text,8,2005859,28,60edecb2a22d916d2ed4a6f9,60ef31d6d180873bc4fa7881,60eeda93f77dbf4e76adc5bd,60ef31d6d180873bc4fa7881,"{""Plan"":""First, take a deep breath and relax. This is a trip to the spa and the gym all wrapped in one experience. \nFind something you can grab a hold of, branch or vines work great in the movies.\nPull yourself up slowly, this isn't a race. Pull and rest. Pull and rest.\nBefore you know it you will be out of the quicksand with new arm strength and exfoliated skin.""}","""",test,Escape quicksand.,"""","""","generate, unconstrained"
290,311,3,1,"""",48433.555,survey-text,9,2054305,28,60edecb2a22d916d2ed4a6f9,60ef31d6d180873bc4fa7881,60eeda93f77dbf4e76adc5bd,60ef31d6d180873bc4fa7881,"{""Plan"":""Dress a hunter and go out into the woods.\nMake as much noise as possible so all the deer will run away.\n""}","""",test,Protect the deer in your nearby woods during hunting season.,"""","""","generate, unconstrained"
291,312,3,1,"[{""page_index"":0,""viewing_time"":3618.9200000371784},{""page_index"":1,""viewing_time"":12706.524999812245}]",16326.465,instructions,10,2070636,28,60edecb2a22d916d2ed4a6f9,60ef31d6d180873bc4fa7881,60eeda93f77dbf4e76adc5bd,60ef31d6d180873bc4fa7881,"""","""","""","""","""","""",""""
292,313,3,1,"""",4984.87,survey-multi-choice,11,2075624,28,60edecb2a22d916d2ed4a6f9,60ef31d6d180873bc4fa7881,60eeda93f77dbf4e76adc5bd,60ef31d6d180873bc4fa7881,"{""Q0"":""How frequently you think people try to achieve each goal."",""Q1"":""By selecting an option from a multiple choice scale.""}","[0,1]","""","""","""","""",""""
293,314,3,1,"[{""page_index"":0,""viewing_time"":1313.3700001053512}]",1313.72,instructions,12,2076939,28,60edecb2a22d916d2ed4a6f9,60ef31d6d180873bc4fa7881,60eeda93f77dbf4e76adc5bd,60ef31d6d180873bc4fa7881,"""","""","""","""","""","""",""""
294,315,3,1,"""",11163.37,survey-likert,13,2088106,28,60edecb2a22d916d2ed4a6f9,60ef31d6d180873bc4fa7881,60eeda93f77dbf4e76adc5bd,60ef31d6d180873bc4fa7881,"{""freq"":0}",[0],test,"""","""","""",""""
295,316,3,1,"""",7051.725,survey-likert,14,2095160,28,60edecb2a22d916d2ed4a6f9,60ef31d6d180873bc4fa7881,60eeda93f77dbf4e76adc5bd,60ef31d6d180873bc4fa7881,"{""freq"":3}",[0],test,"""","""","""",""""
296,317,3,1,"""",3762.22,survey-likert,15,2098926,28,60edecb2a22d916d2ed4a6f9,60ef31d6d180873bc4fa7881,60eeda93f77dbf4e76adc5bd,60ef31d6d180873bc4fa7881,"{""freq"":2}",[0],test,"""","""","""",""""
297,318,3,1,"""",5150.45,survey-likert,16,2104078,28,60edecb2a22d916d2ed4a6f9,60ef31d6d180873bc4fa7881,60eeda93f77dbf4e76adc5bd,60ef31d6d180873bc4fa7881,"{""freq"":3}",[0],test,"""","""","""",""""
298,319,3,1,"""",7428.43,survey-likert,17,2111509,28,60edecb2a22d916d2ed4a6f9,60ef31d6d180873bc4fa7881,60eeda93f77dbf4e76adc5bd,60ef31d6d180873bc4fa7881,"{""freq"":4}",[0],test,"""","""","""",""""
299,320,3,1,"""",4581.88,survey-likert,18,2116093,28,60edecb2a22d916d2ed4a6f9,60ef31d6d180873bc4fa7881,60eeda93f77dbf4e76adc5bd,60ef31d6d180873bc4fa7881,"{""freq"":5}",[0],test,"""","""","""",""""
300,321,3,1,"""",4643.97,survey-likert,19,2120740,28,60edecb2a22d916d2ed4a6f9,60ef31d6d180873bc4fa7881,60eeda93f77dbf4e76adc5bd,60ef31d6d180873bc4fa7881,"{""freq"":3}",[0],test,"""","""","""",""""
301,322,3,1,"""",22564.315,survey-text,20,2143315,28,60edecb2a22d916d2ed4a6f9,60ef31d6d180873bc4fa7881,60eeda93f77dbf4e76adc5bd,60ef31d6d180873bc4fa7881,"{""Q0"":""10"",""Q1"":""6"",""Q2"":""7"",""Q3"":""3"",""Q4"":""Thank you!""}","""","""","""","""","""",""""
302,323,30,4,"[{""page_index"":0,""viewing_time"":23081},{""page_index"":1,""viewing_time"":69289.79999999702},{""page_index"":2,""viewing_time"":29770.29999999702},{""page_index"":3,""viewing_time"":15037.800000011921},{""page_index"":4,""viewing_time"":4683}]",141865.9,instructions,0,141895,22,60edecb2a22d916d2ed4a6f9,60ef5299a8209e1635f67dff,60e9570074f4fd833e0ffa27,60ef5299a8209e1635f67dff,"""","""","""","""","""","""",""""
303,324,30,4,"""",31392.3,survey-multi-choice,1,173317,22,60edecb2a22d916d2ed4a6f9,60ef5299a8209e1635f67dff,60e9570074f4fd833e0ffa27,60ef5299a8209e1635f67dff,"{""Q0"":""Plans to achieve goals."",""Q1"":""By writing text.""}","[0,1]","""","""","""","""",""""
304,325,30,4,"[{""page_index"":0,""viewing_time"":8622.29999999702}]",8623.3,instructions,2,181948,22,60edecb2a22d916d2ed4a6f9,60ef5299a8209e1635f67dff,60e9570074f4fd833e0ffa27,60ef5299a8209e1635f67dff,"""","""","""","""","""","""",""""
305,326,30,4,"""",228595,survey-text,3,410602,22,60edecb2a22d916d2ed4a6f9,60ef5299a8209e1635f67dff,60e9570074f4fd833e0ffa27,60ef5299a8209e1635f67dff,"{""Plan"":""my plans for keeping plants in my garden is to \n1.water it regularly\n2.ensure a regular weeding of unwanted grass\n3.always applied herbicides on the plants to keep it safe from pest\n""}","""",test,Keep the plants in your garden alive.,"""","""","generate, unconstrained"
306,327,30,4,"""",273462.3,survey-text,4,684090,22,60edecb2a22d916d2ed4a6f9,60ef5299a8209e1635f67dff,60e9570074f4fd833e0ffa27,60ef5299a8209e1635f67dff,"{""Plan"":""firstly,disconnect the light from the building\nsecondly,apply fire extinguisher which must have been hanged in a close proximity in the room\nthirdly,call the fire authority to avoid any issues in the latter ""}","""",test,Put out a fire that started near the wires from your TV.,"""","""","generate, unconstrained"
307,328,30,4,"""",389790.5,survey-text,5,1073917,22,60edecb2a22d916d2ed4a6f9,60ef5299a8209e1635f67dff,60e9570074f4fd833e0ffa27,60ef5299a8209e1635f67dff,"{""Plan"":""firstly,ensure that you evacuate any people living around such area\nsecondly,call on the agency who are responsible for wildlife organisms \nthirdly,set out or demarcate such area with red lines\nfourthly,hang notice board with inscription of danger zone.""}","""",test,Find out how many sharks live in a cove off a nearby coast.,"""","""","generate, unconstrained"
308,329,30,4,"""",219308.4,survey-text,6,1293247,22,60edecb2a22d916d2ed4a6f9,60ef5299a8209e1635f67dff,60e9570074f4fd833e0ffa27,60ef5299a8209e1635f67dff,"{""Plan"":""i will make sure the terrain is free from obstacles.\nmake sure the landing surface is very smooth\ni ensure there is safety flag is available to direct the pilot""}","""",test,Create a safe landing for a falling skydiver.,"""","""","generate, unconstrained"
309,330,30,4,"""",233974.1,survey-text,7,1527252,22,60edecb2a22d916d2ed4a6f9,60ef5299a8209e1635f67dff,60e9570074f4fd833e0ffa27,60ef5299a8209e1635f67dff,"{""Plan"":""ensure there is vulcanizing tools available \navailability of  spare Tyre \nloose the flat Tyre completely\nreplace with the spare \nand finally gauge the pressure of the spare""}","""",test,Fix a flat tire.,"""","""","generate, unconstrained"
310,331,30,4,"""",144526.2,survey-text,8,1671800,22,60edecb2a22d916d2ed4a6f9,60ef5299a8209e1635f67dff,60e9570074f4fd833e0ffa27,60ef5299a8209e1635f67dff,"{""Plan"":""ensure i put on safety wears \nensure i take a good and well filled oxygen gas\nuse swimming goggle""}","""",test,Make a fort underwater.,"""","""","generate, unconstrained"
311,332,30,4,"""",139734.2,survey-text,9,1811556,22,60edecb2a22d916d2ed4a6f9,60ef5299a8209e1635f67dff,60e9570074f4fd833e0ffa27,60ef5299a8209e1635f67dff,"{""Plan"":""making sure there is enough water\nmaking sure there is enough detergent \nwash properly\ndry off the water from the dishes \nplace the dishes in the right place""}","""",test,Clean the dirty dishes.,"""","""","generate, unconstrained"
312,333,30,4,"[{""page_index"":0,""viewing_time"":4355.5},{""page_index"":1,""viewing_time"":3556.3999999910593}]",7912.9,instructions,10,1819473,22,60edecb2a22d916d2ed4a6f9,60ef5299a8209e1635f67dff,60e9570074f4fd833e0ffa27,60ef5299a8209e1635f67dff,"""","""","""","""","""","""",""""
313,334,30,4,"""",38477.8,survey-multi-choice,11,1857967,22,60edecb2a22d916d2ed4a6f9,60ef5299a8209e1635f67dff,60e9570074f4fd833e0ffa27,60ef5299a8209e1635f67dff,"{""Q0"":""How frequently you think people try to achieve each goal."",""Q1"":""By writing text.""}","[0,1]","""","""","""","""",""""
