,run_id,condition,view_history,rt,trial_type,trial_index,time_elapsed,PROLIFIC_PID,STUDY_ID,SESSION_ID,subject_id,session_id,response,question_order,phase,prompt,task,constraint
0,103,8,"[{""page_index"":0,""viewing_time"":13388},{""page_index"":1,""viewing_time"":25311.600000023842},{""page_index"":2,""viewing_time"":21127.899999976158},{""page_index"":3,""viewing_time"":15599.899999976158}]",75428.39999997616,instructions,0,75437,77,61c5edec03aa19ac7c1842d5,61ccbff93331f9aa72532ce1,5e121701dc79bd8a1a22ca99,61ccbff93331f9aa72532ce1,"""","""","""","""","""",""""
1,103,8,"""",122887.70000004768,survey-text,1,198403,77,61c5edec03aa19ac7c1842d5,61ccbff93331f9aa72532ce1,5e121701dc79bd8a1a22ca99,61ccbff93331f9aa72532ce1,"{""Q0"":""I commit to do my best to try to write high-quality explanations. I recognize that if I do not try my best to generate an explanation for each situation, I may not be paid.""}","""","""","""","""",""""
2,103,8,"[{""page_index"":0,""viewing_time"":2309.3000000715256}]",2309.600000023842,instructions,2,200715,77,61c5edec03aa19ac7c1842d5,61ccbff93331f9aa72532ce1,5e121701dc79bd8a1a22ca99,61ccbff93331f9aa72532ce1,"""","""","""","""","""",""""
3,103,8,"""",37444.60000002384,survey-multi-choice,3,238163,77,61c5edec03aa19ac7c1842d5,61ccbff93331f9aa72532ce1,5e121701dc79bd8a1a22ca99,61ccbff93331f9aa72532ce1,"{""Q0"":""Explanations for events."",""Q1"":""By writing text."",""Q2"":""Not making a good attempt to write a high-quality answer for each task.""}","[0,1,2]","""","""","""",""""
4,103,8,"[{""page_index"":0,""viewing_time"":2049.6999999284744}]",2049.899999976158,instructions,4,240218,77,61c5edec03aa19ac7c1842d5,61ccbff93331f9aa72532ce1,5e121701dc79bd8a1a22ca99,61ccbff93331f9aa72532ce1,"""","""","""","""","""",""""
5,103,8,"""",78671.69999992847,survey-text,5,318898,77,61c5edec03aa19ac7c1842d5,61ccbff93331f9aa72532ce1,5e121701dc79bd8a1a22ca99,61ccbff93331f9aa72532ce1,"{""Explanation"":""they don't own a fire alarm or the fire alarm is old and no longer works properly.""}","""",test,"If a fire in an apartment occurs, then the fire alarm goes off. But suppose a fire in an apartment occurs, and then the fire alarm do not goes off.","generate, single-constraint",the batteries in the fire alarm were dead
6,103,8,"""",61924,survey-text,6,380826,77,61c5edec03aa19ac7c1842d5,61ccbff93331f9aa72532ce1,5e121701dc79bd8a1a22ca99,61ccbff93331f9aa72532ce1,"{""Explanation"":""the pest outbreak were bees and they helped pollinate the crops.""}","""",test,"If pest outbreaks occur on a farm, then crops in the farm die. But suppose pest outbreaks occur on a farm, and then crops in the farm do not die.","generate, single-constraint",the crops were previously sprayed with pesticides
7,103,8,"""",52001.10000002384,survey-text,7,432834,77,61c5edec03aa19ac7c1842d5,61ccbff93331f9aa72532ce1,5e121701dc79bd8a1a22ca99,61ccbff93331f9aa72532ce1,"{""Explanation"":""there skin does not act negatively to poison ivy.  They do not easily get skin irritations.""}","""",test,"If someone touches poison ivy, then they get a rash. But suppose touches poison ivy, and then they do not get a rash.","generate, single-constraint",they were wearing gloves
8,103,8,"""",31935.300000071526,survey-text,8,464778,77,61c5edec03aa19ac7c1842d5,61ccbff93331f9aa72532ce1,5e121701dc79bd8a1a22ca99,61ccbff93331f9aa72532ce1,"{""Explanation"":""the window was covered with screen protectors.""}","""",test,"If rocks are thrown at a window, then the window breaks. But suppose rocks are thrown at a window, and then the window does not break.","generate, single-constraint",the window was made of shatter-proof glass
9,103,8,"""",22702.5,survey-text,9,487489,77,61c5edec03aa19ac7c1842d5,61ccbff93331f9aa72532ce1,5e121701dc79bd8a1a22ca99,61ccbff93331f9aa72532ce1,"{""Explanation"":""the person was wearing long pants.""}","""",test,"If someone falls on the sidewalk, then they scrape your knee. But suppose someone falls on the sidewalk, and then they do not scrape their knee.","generate, single-constraint",they are wearing knee pads
10,103,8,"""",32755.799999952316,survey-text,10,520249,77,61c5edec03aa19ac7c1842d5,61ccbff93331f9aa72532ce1,5e121701dc79bd8a1a22ca99,61ccbff93331f9aa72532ce1,"{""Explanation"":""the eggs were in a foam carton that prevented them from breaking.""}","""",test,"If an egg carton is dropped, then the eggs break. But suppose an egg carton is dropped, and then the eggs do not break.","generate, single-constraint",the egg carton landed on a soft surface
11,103,8,"""",35662.10000002384,survey-text,11,555921,77,61c5edec03aa19ac7c1842d5,61ccbff93331f9aa72532ce1,5e121701dc79bd8a1a22ca99,61ccbff93331f9aa72532ce1,"{""Explanation"":""the forgot to close the drain stopper.""}","""",test,"If someone turns on a bathtub tap, then a bathtub fills with water. But suppose someone turns on a bathtub tap, and then the bathtub does not fill with water.","generate, single-constraint",the person did not pay their water bill so the supply was turned off
12,103,8,"""",22031.899999976158,survey-text,12,577962,77,61c5edec03aa19ac7c1842d5,61ccbff93331f9aa72532ce1,5e121701dc79bd8a1a22ca99,61ccbff93331f9aa72532ce1,"{""Q0"":""10"",""Q1"":""7"",""Q2"":""10"",""Q3"":""}","""","""","""","""",""""
13,1,3,"[{""page_index"":0,""viewing_time"":7081.4000000003725},{""page_index"":1,""viewing_time"":18136.300000000745},{""page_index"":2,""viewing_time"":17646.099999999627},{""page_index"":3,""viewing_time"":17475.5}]",60339.90000000037,instructions,0,60352,90,61c5edec03aa19ac7c1842d5,61c629ee435ee30e61c5a0c0,5eb77fcb7516866b1aa8332f,61c629ee435ee30e61c5a0c0,"""","""","""","""","""",""""
14,1,3,"""",66739.40000000037,survey-text,1,127107,90,61c5edec03aa19ac7c1842d5,61c629ee435ee30e61c5a0c0,5eb77fcb7516866b1aa8332f,61c629ee435ee30e61c5a0c0,"{""Q0"":""I commit to do my best to try to write high-quality explanations. I recognize that if I do not try my best to generate an explanation for each situation, I may not be paid.""}","""","""","""","""",""""
15,1,3,"[{""page_index"":0,""viewing_time"":2599.5}]",2599.9000000003725,instructions,2,129708,90,61c5edec03aa19ac7c1842d5,61c629ee435ee30e61c5a0c0,5eb77fcb7516866b1aa8332f,61c629ee435ee30e61c5a0c0,"""","""","""","""","""",""""
16,1,3,"""",17118.10000000149,survey-multi-choice,3,146830,90,61c5edec03aa19ac7c1842d5,61c629ee435ee30e61c5a0c0,5eb77fcb7516866b1aa8332f,61c629ee435ee30e61c5a0c0,"{""Q0"":""Explanations for events."",""Q1"":""By writing text."",""Q2"":""Not making a good attempt to write a high-quality answer for each task.""}","[0,1,2]","""","""","""",""""
17,1,3,"[{""page_index"":0,""viewing_time"":1434.0999999996275}]",1434.5,instructions,4,148267,90,61c5edec03aa19ac7c1842d5,61c629ee435ee30e61c5a0c0,5eb77fcb7516866b1aa8332f,61c629ee435ee30e61c5a0c0,"""","""","""","""","""",""""
18,1,3,"""",142971.3999999985,survey-text,5,291245,90,61c5edec03aa19ac7c1842d5,61c629ee435ee30e61c5a0c0,5eb77fcb7516866b1aa8332f,61c629ee435ee30e61c5a0c0,"{""Explanation"":""the ground was very hard, maybe from hardening over time from climate change. Another possibility is that it is concrete because the meteor hits the ground in a city.""}","""",test,"If a meteor hits the ground, then a crater is made. But suppose a meteor hits the ground, and then a crater is not made.","generate, all-constraints","the meteor was tiny, there already was a hole in the ground, or the meteor hit the ground very lightly"
19,1,3,"""",289024,survey-text,6,580253,90,61c5edec03aa19ac7c1842d5,61c629ee435ee30e61c5a0c0,5eb77fcb7516866b1aa8332f,61c629ee435ee30e61c5a0c0,"{""Explanation"":""they are attached to a bungie cord perfectly timed to break their fall. The moment their hand touches the ground, the bungie cord snaps them back up.""}","""",test,"If someone falls from a high height onto their outstretched arm, then they will break their wrist. But suppose someone falls from a high height onto their outstretched arm, and then they do not break their wrist.","generate, all-constraints","they landed on something soft, the person had resilient bones, the person was extremely light, or they landed in a way that their wrist bent instead of broke"
20,1,3,"""",231995.5,survey-text,7,812256,90,61c5edec03aa19ac7c1842d5,61c629ee435ee30e61c5a0c0,5eb77fcb7516866b1aa8332f,61c629ee435ee30e61c5a0c0,"{""Explanation"":""the animals dug deep holes underneath the fence, thus destabilizing the base of each fence pole. Resulting in the fence collapsing. ""}","""",test,"If the the gates in a zoo are closed, then the zoo animals do not escape. But suppose the gates in a zoo are closed, and then the animals do escape.","generate, all-constraints","the animals climed over the gates, the animals escaped through a hole, the zoo gates were not strong enough, the zookeeper forgot to lock the gates, some of the animals flew out because the roof was left open, or a worked opened the gate on purpose"
21,1,3,"""",127333.29999999888,survey-text,8,939595,90,61c5edec03aa19ac7c1842d5,61c629ee435ee30e61c5a0c0,5eb77fcb7516866b1aa8332f,61c629ee435ee30e61c5a0c0,"{""Explanation"":""the cymbal was in a vacuum chamber or in outer-space. The lack of air means no sound is generated because the sound waves require compression of air molecules.""}","""",test,"If a cymbal is hit with a drum stick, then it clangs. But suppose a cymbal is hit with a drum stick, and then it does not clang.","generate, all-constraints","the drumstick was made of soft material, the cymbal was padded, the cymbal was stuck, or that the cymbal was not hit hard enough"
22,1,3,"""",359379.7999999989,survey-text,9,1299009,90,61c5edec03aa19ac7c1842d5,61c629ee435ee30e61c5a0c0,5eb77fcb7516866b1aa8332f,61c629ee435ee30e61c5a0c0,"{""Explanation"":""the blue color is only visible at cold temperatures from its chemical makeup. The room is extremely hot and as the slushie leaves the cup, it warms up and changes color. ""}","""",test,"If a blue slushie is spilled on a carpet, then the carpet is stained blue. But suppose a blue slushie is spilled on a carpet, and then the carpet is not stained blue.","generate, all-constraints","the carpet was made of stain-resistant material, the carpet was the same color as the slushie, or that the carpet was treated with stain-resistant solution"
23,1,3,"""",62032.800000000745,survey-text,10,1361045,90,61c5edec03aa19ac7c1842d5,61c629ee435ee30e61c5a0c0,5eb77fcb7516866b1aa8332f,61c629ee435ee30e61c5a0c0,"{""Explanation"":""salt was added to the water, thus lowering the freezing point of the water below the temperature of the freezer. ""}","""",test,"If water is put in the freezer, then it turns into ice. But suppose water is put in the freezer, and then it does not turn into ice.","generate, all-constraints","the freezer was off, the freezer is broken, or the freezer was set too warm"
24,1,3,"""",307278.9000000004,survey-text,11,1668336,90,61c5edec03aa19ac7c1842d5,61c629ee435ee30e61c5a0c0,5eb77fcb7516866b1aa8332f,61c629ee435ee30e61c5a0c0,"{""Explanation"":""the air is so humid that the smoke doesn't have a drying effect on the airways, preventing you from coughing. ""}","""",test,"If a person breathes in wildfire smoke, then they cough. But suppose a person breathes in wildfire smoke, and then they do not cough.","generate, all-constraints","they did not breathe in enough, they were wearing protective breathing equipment, they held their breath, they became unconscious, they took a cough suppressant, or they are less sensitive to smoke because they are a serial smoker"
25,1,3,"""",20090.199999999255,survey-text,12,1688430,90,61c5edec03aa19ac7c1842d5,61c629ee435ee30e61c5a0c0,5eb77fcb7516866b1aa8332f,61c629ee435ee30e61c5a0c0,"{""Q0"":""10"",""Q1"":""8"",""Q2"":""7"",""Q3"":""}","""","""","""","""",""""
26,105,6,"[{""page_index"":0,""viewing_time"":7547.299999999814},{""page_index"":1,""viewing_time"":1621.8000000002794},{""page_index"":2,""viewing_time"":4992.399999999907},{""page_index"":3,""viewing_time"":4660.5}]",18822.69999999972,instructions,0,18827,112,61c5edec03aa19ac7c1842d5,61ccbffc4f07ff7c374aada6,5fefd5b2173bfbe890bc98ed,61ccbffc4f07ff7c374aada6,"""","""","""","""","""",""""
27,105,6,"""",47487.60000000009,survey-text,1,66326,112,61c5edec03aa19ac7c1842d5,61ccbffc4f07ff7c374aada6,5fefd5b2173bfbe890bc98ed,61ccbffc4f07ff7c374aada6,"{""Q0"":""I commit to do my best to try to write high-quality explanations. I recognize that if I do not try my best to generate an explanation for each situation, I may not be paid.""}","""","""","""","""",""""
28,105,6,"[{""page_index"":0,""viewing_time"":1411.5}]",1411.7999999998137,instructions,2,67739,112,61c5edec03aa19ac7c1842d5,61ccbffc4f07ff7c374aada6,5fefd5b2173bfbe890bc98ed,61ccbffc4f07ff7c374aada6,"""","""","""","""","""",""""
29,105,6,"""",8153,survey-multi-choice,3,75896,112,61c5edec03aa19ac7c1842d5,61ccbffc4f07ff7c374aada6,5fefd5b2173bfbe890bc98ed,61ccbffc4f07ff7c374aada6,"{""Q0"":""Explanations for events."",""Q1"":""By writing text."",""Q2"":""Not making a good attempt to write a high-quality answer for each task.""}","[0,1,2]","""","""","""",""""
30,105,6,"[{""page_index"":0,""viewing_time"":1372.7000000001863}]",1373.7000000001863,instructions,4,77272,112,61c5edec03aa19ac7c1842d5,61ccbffc4f07ff7c374aada6,5fefd5b2173bfbe890bc98ed,61ccbffc4f07ff7c374aada6,"""","""","""","""","""",""""
31,105,6,"""",49005.60000000009,survey-text,5,126286,112,61c5edec03aa19ac7c1842d5,61ccbffc4f07ff7c374aada6,5fefd5b2173bfbe890bc98ed,61ccbffc4f07ff7c374aada6,"{""Explanation"":""the cat was muzzled while on the way to the vet to prevent biting. The cat was muzzled, so it could not yowl. ""}","""",test,"If a cat's tail is pulled, then the cat yowls. But suppose a cat's tail is pulled, and then the cat does not yowl.","generate, single-constraint",the cat was dead
32,105,6,"""",35221.799999999814,survey-text,6,161513,112,61c5edec03aa19ac7c1842d5,61ccbffc4f07ff7c374aada6,5fefd5b2173bfbe890bc98ed,61ccbffc4f07ff7c374aada6,"{""Explanation"":""the confetti cannon was fired underwater. The water absorbed the sound and therefore it did not make a loud noise. ""}","""",test,"If a confetti cannon is fired, then it produces a loud noise. But suppose a confetti cannon is fired, and then it does not produce a loud noise.","generate, single-constraint",the confetti cannon was defective
33,105,6,"""",81362,survey-text,7,242884,112,61c5edec03aa19ac7c1842d5,61ccbffc4f07ff7c374aada6,5fefd5b2173bfbe890bc98ed,61ccbffc4f07ff7c374aada6,"{""Explanation"":""the weather got hotter, but just barely above freezing. The combination of the snowman's internal cold temperature and the relatively hotter (but still cold) weather made it so that the thin ground snow melts but the packed snowman snow did not. ""}","""",test,"If the weather gets hotter around a snowman in a backyard, then the snowman melts. But suppose the weather gets hotter around a snowman in a backyard, and then the snowman does not melt.","generate, single-constraint",the snowman was made of plastic
34,105,6,"""",33385.5,survey-text,8,276282,112,61c5edec03aa19ac7c1842d5,61ccbffc4f07ff7c374aada6,5fefd5b2173bfbe890bc98ed,61ccbffc4f07ff7c374aada6,"{""Explanation"":""the shelves were wedged between other pieces of furniture and were held up by them like braces. ""}","""",test,"If a severe earthquake occurs near an office building, then the shelves in the office fall down. But suppose a severe earthquake occurs near an office building, and then the shelves in the office do not fall down.","generate, single-constraint",the shelves were bolted to the ground
35,105,6,"""",21179.899999999907,survey-text,9,297472,112,61c5edec03aa19ac7c1842d5,61ccbffc4f07ff7c374aada6,5fefd5b2173bfbe890bc98ed,61ccbffc4f07ff7c374aada6,"{""Explanation"":""the humidity in the air was such that the plants can survive without extra water. ""}","""",test,"If plants are not watered, then they die. But suppose plants are not watered, and then they do not die.","generate, single-constraint",the plants were cacti
36,105,6,"""",26353.400000000373,survey-text,10,323834,112,61c5edec03aa19ac7c1842d5,61ccbffc4f07ff7c374aada6,5fefd5b2173bfbe890bc98ed,61ccbffc4f07ff7c374aada6,"{""Explanation"":""it is very dry (perhaps the desert) and the rain evaporates before hitting the ground. ""}","""",test,"If it rains over grass, then the grass becomes wet. But suppose it rains, and then the grass does not become wet.","generate, single-constraint",there was a canopy over the grass
37,105,6,"""",44910.39999999991,survey-text,11,368758,112,61c5edec03aa19ac7c1842d5,61ccbffc4f07ff7c374aada6,5fefd5b2173bfbe890bc98ed,61ccbffc4f07ff7c374aada6,"{""Explanation"":""the door is removed from its hinges and completely taken off the frame. ""}","""",test,"If a door is locked with a bolt, then it cannot be opened. But suppose a door is locked with a bolt, and then it is opened.","generate, single-constraint",the lock was broken
38,105,6,"""",12919.299999999814,survey-text,12,381684,112,61c5edec03aa19ac7c1842d5,61ccbffc4f07ff7c374aada6,5fefd5b2173bfbe890bc98ed,61ccbffc4f07ff7c374aada6,"{""Q0"":""10"",""Q1"":""2"",""Q2"":""8"",""Q3"":""Fun experiment!""}","""","""","""","""",""""
39,102,4,"[{""page_index"":0,""viewing_time"":63281.5},{""page_index"":1,""viewing_time"":33123.5},{""page_index"":2,""viewing_time"":12818.700000047684},{""page_index"":3,""viewing_time"":30888.299999952316}]",140112.60000002384,instructions,0,140116,43,61c5edec03aa19ac7c1842d5,61ccbffd703dd703ae565743,574ce0a57fd0ec000db73aa6,61ccbffd703dd703ae565743,"""","""","""","""","""",""""
40,102,4,"""",58307.199999928474,survey-text,1,198434,43,61c5edec03aa19ac7c1842d5,61ccbffd703dd703ae565743,574ce0a57fd0ec000db73aa6,61ccbffd703dd703ae565743,"{""Q0"":""I commit to do my best to try to write high-quality explanations. I recognize that if I do not try my best to generate an explanation for each situation, I may not be paid.""}","""","""","""","""",""""
41,102,4,"[{""page_index"":0,""viewing_time"":1126.6000000238419}]",1126.7000000476837,instructions,2,199561,43,61c5edec03aa19ac7c1842d5,61ccbffd703dd703ae565743,574ce0a57fd0ec000db73aa6,61ccbffd703dd703ae565743,"""","""","""","""","""",""""
42,102,4,"""",8118.200000047684,survey-multi-choice,3,207682,43,61c5edec03aa19ac7c1842d5,61ccbffd703dd703ae565743,574ce0a57fd0ec000db73aa6,61ccbffd703dd703ae565743,"{""Q0"":""Explanations for events."",""Q1"":""By writing text."",""Q2"":""Writing high-quality but risky answers for each task.""}","[0,1,2]","""","""","""",""""
43,102,4,"[{""page_index"":0,""viewing_time"":8050.5},{""page_index"":1,""viewing_time"":14945},{""page_index"":2,""viewing_time"":3646.5},{""page_index"":3,""viewing_time"":5317.200000047684},{""page_index"":2,""viewing_time"":5854},{""page_index"":3,""viewing_time"":964.8999999761581}]",38778.39999997616,instructions,4,246462,43,61c5edec03aa19ac7c1842d5,61ccbffd703dd703ae565743,574ce0a57fd0ec000db73aa6,61ccbffd703dd703ae565743,"""","""","""","""","""",""""
44,102,4,"""",26374.399999976158,survey-text,5,272840,43,61c5edec03aa19ac7c1842d5,61ccbffd703dd703ae565743,574ce0a57fd0ec000db73aa6,61ccbffd703dd703ae565743,"{""Q0"":""I commit to do my best to try to write high-quality explanations. I recognize that if I do not try my best to generate an explanation for each situation, I may not be paid.""}","""","""","""","""",""""
45,102,4,"[{""page_index"":0,""viewing_time"":10141.199999928474}]",10141.599999904633,instructions,6,282982,43,61c5edec03aa19ac7c1842d5,61ccbffd703dd703ae565743,574ce0a57fd0ec000db73aa6,61ccbffd703dd703ae565743,"""","""","""","""","""",""""
46,102,4,"""",8156.099999904633,survey-multi-choice,7,291141,43,61c5edec03aa19ac7c1842d5,61ccbffd703dd703ae565743,574ce0a57fd0ec000db73aa6,61ccbffd703dd703ae565743,"{""Q0"":""Explanations for events."",""Q1"":""By writing text."",""Q2"":""Not making a good attempt to write a high-quality answer for each task.""}","[0,1,2]","""","""","""",""""
47,102,4,"[{""page_index"":0,""viewing_time"":1293.5}]",1294,instructions,8,292435,43,61c5edec03aa19ac7c1842d5,61ccbffd703dd703ae565743,574ce0a57fd0ec000db73aa6,61ccbffd703dd703ae565743,"""","""","""","""","""",""""
48,102,4,"""",60764.60000002384,survey-text,9,353206,43,61c5edec03aa19ac7c1842d5,61ccbffd703dd703ae565743,574ce0a57fd0ec000db73aa6,61ccbffd703dd703ae565743,"{""Explanation"":""The flames consumed the fire alarm before it had a chance to go off. The heat of the fire could have melted the alarm itself or short-circuited the wiring.""}","""",test,"If a fire in an apartment occurs, then the fire alarm goes off. But suppose a fire in an apartment occurs, and then the fire alarm do not goes off.","generate, single-constraint",the batteries in the fire alarm were dead
49,102,4,"""",30549.299999952316,survey-text,10,383757,43,61c5edec03aa19ac7c1842d5,61ccbffd703dd703ae565743,574ce0a57fd0ec000db73aa6,61ccbffd703dd703ae565743,"{""Explanation"":""The eggs were sufficiently cushioned by a soft, yet durable material inside the carton.""}","""",test,"If an egg carton is dropped, then the eggs break. But suppose an egg carton is dropped, and then the eggs do not break.","generate, single-constraint",the egg carton landed on a soft surface
50,102,4,"""",42587,survey-text,11,426347,43,61c5edec03aa19ac7c1842d5,61ccbffd703dd703ae565743,574ce0a57fd0ec000db73aa6,61ccbffd703dd703ae565743,"{""Explanation"":""The rocks were not thrown with enough force to break the glass.""}","""",test,"If rocks are thrown at a window, then the window breaks. But suppose rocks are thrown at a window, and then the window does not break.","generate, single-constraint",the window was made of shatter-proof glass
51,102,4,"""",49995.799999952316,survey-text,12,476346,43,61c5edec03aa19ac7c1842d5,61ccbffd703dd703ae565743,574ce0a57fd0ec000db73aa6,61ccbffd703dd703ae565743,"{""Explanation"":""They broke their fall with their hands and/or arms, softening the impact to their knees.""}","""",test,"If someone falls on the sidewalk, then they scrape your knee. But suppose someone falls on the sidewalk, and then they do not scrape their knee.","generate, single-constraint",they are wearing knee pads
52,102,4,"""",20731.5,survey-text,13,497082,43,61c5edec03aa19ac7c1842d5,61ccbffd703dd703ae565743,574ce0a57fd0ec000db73aa6,61ccbffd703dd703ae565743,"{""Explanation"":""The crops were genetically modified to resist damage from pests.""}","""",test,"If pest outbreaks occur on a farm, then crops in the farm die. But suppose pest outbreaks occur on a farm, and then crops in the farm do not die.","generate, single-constraint",the crops were previously sprayed with pesticides
53,102,4,"""",47827.700000047684,survey-text,14,544912,43,61c5edec03aa19ac7c1842d5,61ccbffd703dd703ae565743,574ce0a57fd0ec000db73aa6,61ccbffd703dd703ae565743,"{""Explanation"":""The bathtub faucet and/or piping was clogged by debris, not allowing water to flow freely.""}","""",test,"If someone turns on a bathtub tap, then a bathtub fills with water. But suppose someone turns on a bathtub tap, and then the bathtub does not fill with water.","generate, single-constraint",the person did not pay their water bill so the supply was turned off
54,102,4,"""",794542.6000000238,survey-text,15,1338273,43,61c5edec03aa19ac7c1842d5,61ccbffd703dd703ae565743,574ce0a57fd0ec000db73aa6,61ccbffd703dd703ae565743,"{""Explanation"":""The poison ivy was inactive or dead. The irritating oils would not have been potent to cause a reaction.""}","""",test,"If someone touches poison ivy, then they get a rash. But suppose touches poison ivy, and then they do not get a rash.","generate, single-constraint",they were wearing gloves
55,102,4,"""",12232.5,survey-text,16,1350508,43,61c5edec03aa19ac7c1842d5,61ccbffd703dd703ae565743,574ce0a57fd0ec000db73aa6,61ccbffd703dd703ae565743,"{""Q0"":""10"",""Q1"":""4"",""Q2"":""10"",""Q3"":""}","""","""","""","""",""""
56,100,2,"[{""page_index"":0,""viewing_time"":4014},{""page_index"":1,""viewing_time"":15054.300000011921},{""page_index"":2,""viewing_time"":31657.19999998808},{""page_index"":3,""viewing_time"":20480}]",71207.59999996424,instructions,0,71217,47,61c5edec03aa19ac7c1842d5,61ca2cb1e554945eae21523f,597fe89a1b41a20001749f57,61ca2cb1e554945eae21523f,"""","""","""","""","""",""""
57,100,2,"""",63060.5,survey-text,1,134297,47,61c5edec03aa19ac7c1842d5,61ca2cb1e554945eae21523f,597fe89a1b41a20001749f57,61ca2cb1e554945eae21523f,"{""Q0"":""I commit to do my best to try to write high-quality explanations. I recognize that if I do not try my best to generate an explanation for each situation, I may not be paid.""}","""","""","""","""",""""
58,100,2,"[{""page_index"":0,""viewing_time"":1704.5999999642372}]",1705.8999999761581,instructions,2,136008,47,61c5edec03aa19ac7c1842d5,61ca2cb1e554945eae21523f,597fe89a1b41a20001749f57,61ca2cb1e554945eae21523f,"""","""","""","""","""",""""
59,100,2,"""",17188.899999976158,survey-multi-choice,3,153209,47,61c5edec03aa19ac7c1842d5,61ca2cb1e554945eae21523f,597fe89a1b41a20001749f57,61ca2cb1e554945eae21523f,"{""Q0"":""Explanations for events."",""Q1"":""By writing text."",""Q2"":""Not making a good attempt to write a high-quality answer for each task.""}","[0,1,2]","""","""","""",""""
60,100,2,"[{""page_index"":0,""viewing_time"":1515.6000000238419}]",1516.5,instructions,4,154727,47,61c5edec03aa19ac7c1842d5,61ca2cb1e554945eae21523f,597fe89a1b41a20001749f57,61ca2cb1e554945eae21523f,"""","""","""","""","""",""""
61,100,2,"""",118020.19999998808,survey-text,5,272768,47,61c5edec03aa19ac7c1842d5,61ca2cb1e554945eae21523f,597fe89a1b41a20001749f57,61ca2cb1e554945eae21523f,"{""Explanation"":""This could have happened because this particular door can be pulled or pushed open. The bolt only prevents the door from being pulled open. You can still push it open if the door is locked.""}","""",test,"If a door is locked with a bolt, then it cannot be opened. But suppose a door is locked with a bolt, and then it is opened.","generate, single-constraint",the lock was broken
62,100,2,"""",243733.5,survey-text,6,516529,47,61c5edec03aa19ac7c1842d5,61ca2cb1e554945eae21523f,597fe89a1b41a20001749f57,61ca2cb1e554945eae21523f,"{""Explanation"":""This could have happened because the rain only fell in certain areas. For instance, there could have been a steep, grass-covered hill and the rain fell such that only part of the grass was moistened.""}","""",test,"If it rains over grass, then the grass becomes wet. But suppose it rains, and then the grass does not become wet.","generate, single-constraint",there was a canopy over the grass
63,100,2,"""",138420.69999998808,survey-text,7,654984,47,61c5edec03aa19ac7c1842d5,61ca2cb1e554945eae21523f,597fe89a1b41a20001749f57,61ca2cb1e554945eae21523f,"{""Explanation"":""This could have happened because these types of plants grow in and around water. They don't need to be watered because they already grow in a moist, wet environment and additional watering is not required.""}","""",test,"If plants are not watered, then they die. But suppose plants are not watered, and then they do not die.","generate, single-constraint",the plants were cacti
64,100,2,"""",197853.60000002384,survey-text,8,852866,47,61c5edec03aa19ac7c1842d5,61ca2cb1e554945eae21523f,597fe89a1b41a20001749f57,61ca2cb1e554945eae21523f,"{""Explanation"":""This could have happened because the snowman was built inside an igloo. The igloo was able to withstand the warmer temperatures due to its thick, sturdy construction and it protected everything inside of it from the weather.""}","""",test,"If the weather gets hotter around a snowman in a backyard, then the snowman melts. But suppose the weather gets hotter around a snowman in a backyard, and then the snowman does not melt.","generate, single-constraint",the snowman was made of plastic
65,100,2,"""",125316,survey-text,9,978209,47,61c5edec03aa19ac7c1842d5,61ca2cb1e554945eae21523f,597fe89a1b41a20001749f57,61ca2cb1e554945eae21523f,"{""Explanation"":""This could have happened because the shelves were attached to the walls. The walls withstood the force of the earthquake such that nothing attached to them fell off.""}","""",test,"If a severe earthquake occurs near an office building, then the shelves in the office fall down. But suppose a severe earthquake occurs near an office building, and then the shelves in the office do not fall down.","generate, single-constraint",the shelves were bolted to the ground
66,100,2,"""",78012.30000001192,survey-text,10,1056242,47,61c5edec03aa19ac7c1842d5,61ca2cb1e554945eae21523f,597fe89a1b41a20001749f57,61ca2cb1e554945eae21523f,"{""Explanation"":""This could have happened because the cannon was fired from within a sound-proof room. There was no one inside the room to hear anything, therefore no loud noise was detected.""}","""",test,"If a confetti cannon is fired, then it produces a loud noise. But suppose a confetti cannon is fired, and then it does not produce a loud noise.","generate, single-constraint",the confetti cannon was defective
67,100,2,"""",32592.69999998808,survey-text,11,1088863,47,61c5edec03aa19ac7c1842d5,61ca2cb1e554945eae21523f,597fe89a1b41a20001749f57,61ca2cb1e554945eae21523f,"{""Explanation"":""This could have happened because the cat was under anesthesia for an operation. A cat cannot feel anything when its under the gas.""}","""",test,"If a cat's tail is pulled, then the cat yowls. But suppose a cat's tail is pulled, and then the cat does not yowl.","generate, single-constraint",the cat was dead
68,100,2,"""",10342.300000011921,survey-text,12,1099233,47,61c5edec03aa19ac7c1842d5,61ca2cb1e554945eae21523f,597fe89a1b41a20001749f57,61ca2cb1e554945eae21523f,"{""Q0"":""10"",""Q1"":""8"",""Q2"":""7"",""Q3"":""}","""","""","""","""",""""
69,108,2,"[{""page_index"":0,""viewing_time"":3796.2000000476837},{""page_index"":1,""viewing_time"":6381.299999952316},{""page_index"":2,""viewing_time"":13801.600000023842},{""page_index"":3,""viewing_time"":4713.799999952316}]",28693.700000047684,instructions,0,28702,152,61c5edec03aa19ac7c1842d5,61ccbffb0055c96602b25f04,612547f89bad5437aaecfa66,61ccbffb0055c96602b25f04,"""","""","""","""","""",""""
70,108,2,"""",49449.10000002384,survey-text,1,78169,152,61c5edec03aa19ac7c1842d5,61ccbffb0055c96602b25f04,612547f89bad5437aaecfa66,61ccbffb0055c96602b25f04,"{""Q0"":""I commit to do my best to try to write high-quality explanations. I recognize that if I do not try my best to generate an explanation for each situation, I may not be paid.""}","""","""","""","""",""""
71,108,2,"[{""page_index"":0,""viewing_time"":3137.5999999046326}]",3137.7999999523163,instructions,2,81308,152,61c5edec03aa19ac7c1842d5,61ccbffb0055c96602b25f04,612547f89bad5437aaecfa66,61ccbffb0055c96602b25f04,"""","""","""","""","""",""""
72,108,2,"""",12215.299999952316,survey-multi-choice,3,93526,152,61c5edec03aa19ac7c1842d5,61ccbffb0055c96602b25f04,612547f89bad5437aaecfa66,61ccbffb0055c96602b25f04,"{""Q0"":""Explanations for events."",""Q1"":""By writing text."",""Q2"":""Not making a good attempt to write a high-quality answer for each task.""}","[0,1,2]","""","""","""",""""
73,108,2,"[{""page_index"":0,""viewing_time"":1580.7999999523163}]",1581.0999999046326,instructions,4,95110,152,61c5edec03aa19ac7c1842d5,61ccbffb0055c96602b25f04,612547f89bad5437aaecfa66,61ccbffb0055c96602b25f04,"""","""","""","""","""",""""
74,108,2,"""",137838.89999997616,survey-text,5,232957,152,61c5edec03aa19ac7c1842d5,61ccbffb0055c96602b25f04,612547f89bad5437aaecfa66,61ccbffb0055c96602b25f04,"{""Explanation"":""the shelves were being blocked by something else in the office, preventing it from falling down. If some office equipment, desks, or anything big in the room was moved, because of the earthquake, towards the shelves, then they would be prevented from falling down.""}","""",test,"If a severe earthquake occurs near an office building, then the shelves in the office fall down. But suppose a severe earthquake occurs near an office building, and then the shelves in the office do not fall down.","generate, single-constraint",the shelves were bolted to the ground
75,108,2,"""",103658.59999990463,survey-text,6,336619,152,61c5edec03aa19ac7c1842d5,61ccbffb0055c96602b25f04,612547f89bad5437aaecfa66,61ccbffb0055c96602b25f04,"{""Explanation"":""the confetti cannon was placed in water. Water has a poor conductor for soundwaves to travel through to the air, which when being fired underwater, you wont hear anything.""}","""",test,"If a confetti cannon is fired, then it produces a loud noise. But suppose a confetti cannon is fired, and then it does not produce a loud noise.","generate, single-constraint",the confetti cannon was defective
76,108,2,"""",69516,survey-text,7,406142,152,61c5edec03aa19ac7c1842d5,61ccbffb0055c96602b25f04,612547f89bad5437aaecfa66,61ccbffb0055c96602b25f04,"{""Explanation"":""the plants are in a humid environment where condensation occurs frequently. Water will build up from the air, making it able to be absorbed by the roots in the ground when the droplets fall off. ""}","""",test,"If plants are not watered, then they die. But suppose plants are not watered, and then they do not die.","generate, single-constraint",the plants were cacti
77,108,2,"""",65550.30000007153,survey-text,8,471696,152,61c5edec03aa19ac7c1842d5,61ccbffb0055c96602b25f04,612547f89bad5437aaecfa66,61ccbffb0055c96602b25f04,"{""Explanation"":""the cat was under anesthesia. Under anesthesia, the cat is unconscious and can not feel any pain.  ""}","""",test,"If a cat's tail is pulled, then the cat yowls. But suppose a cat's tail is pulled, and then the cat does not yowl.","generate, single-constraint",the cat was dead
78,108,2,"""",76280.79999995232,survey-text,9,547981,152,61c5edec03aa19ac7c1842d5,61ccbffb0055c96602b25f04,612547f89bad5437aaecfa66,61ccbffb0055c96602b25f04,"{""Explanation"":""the snowman is made from a clay pot. It is a clay pot that was a Christmas decoration, which would be able to stand all temperatures outside.""}","""",test,"If the weather gets hotter around a snowman in a backyard, then the snowman melts. But suppose the weather gets hotter around a snowman in a backyard, and then the snowman does not melt.","generate, single-constraint",the snowman was made of plastic
79,108,2,"""",86622.5,survey-text,10,634608,152,61c5edec03aa19ac7c1842d5,61ccbffb0055c96602b25f04,612547f89bad5437aaecfa66,61ccbffb0055c96602b25f04,"{""Explanation"":""a bunch of leaves build up on the grass. All of the leaves got wet from the rain, but stop it from reaching the grass.""}","""",test,"If it rains over grass, then the grass becomes wet. But suppose it rains, and then the grass does not become wet.","generate, single-constraint",there was a canopy over the grass
80,108,2,"""",67257.20000004768,survey-text,11,701870,152,61c5edec03aa19ac7c1842d5,61ccbffb0055c96602b25f04,612547f89bad5437aaecfa66,61ccbffb0055c96602b25f04,"{""Explanation"":""the door frame was installed incorrectly. The frame being loose and installed wrong cause the locking mechanisms to not work properly, making the door able to open anyway.""}","""",test,"If a door is locked with a bolt, then it cannot be opened. But suppose a door is locked with a bolt, and then it is opened.","generate, single-constraint",the lock was broken
81,108,2,"""",45196.699999928474,survey-text,12,747072,152,61c5edec03aa19ac7c1842d5,61ccbffb0055c96602b25f04,612547f89bad5437aaecfa66,61ccbffb0055c96602b25f04,"{""Q0"":""10"",""Q1"":""7"",""Q2"":""9"",""Q3"":""One of the scenario seemed like it would be impossible, the rain one. ""}","""","""","""","""",""""
82,101,7,"[{""page_index"":0,""viewing_time"":54648.70000000007},{""page_index"":1,""viewing_time"":7425.699999999953},{""page_index"":2,""viewing_time"":11171.900000000023},{""page_index"":3,""viewing_time"":12835.599999999977}]",86082.6000000001,instructions,0,86093,150,61c5edec03aa19ac7c1842d5,61ccbffd41fecb64372ff66f,61202a222a23700ed108b394,61ccbffd41fecb64372ff66f,"""","""","""","""","""",""""
83,101,7,"""",47883,survey-text,1,133997,150,61c5edec03aa19ac7c1842d5,61ccbffd41fecb64372ff66f,61202a222a23700ed108b394,61ccbffd41fecb64372ff66f,"{""Q0"":""I commit to do my best to try to write high-quality explanations. I recognize that if I do not try my best to generate an explanation for each situation, I may not be paid.""}","""","""","""","""",""""
84,101,7,"[{""page_index"":0,""viewing_time"":2360.1999999999534}]",2360.5999999999767,instructions,2,136359,150,61c5edec03aa19ac7c1842d5,61ccbffd41fecb64372ff66f,61202a222a23700ed108b394,61ccbffd41fecb64372ff66f,"""","""","""","""","""",""""
85,101,7,"""",22190.20000000007,survey-multi-choice,3,158553,150,61c5edec03aa19ac7c1842d5,61ccbffd41fecb64372ff66f,61202a222a23700ed108b394,61ccbffd41fecb64372ff66f,"{""Q0"":""Explanations for events."",""Q1"":""By writing text."",""Q2"":""Not making a good attempt to write a high-quality answer for each task.""}","[0,1,2]","""","""","""",""""
86,101,7,"[{""page_index"":0,""viewing_time"":2159.5999999999767}]",2159.899999999907,instructions,4,160718,150,61c5edec03aa19ac7c1842d5,61ccbffd41fecb64372ff66f,61202a222a23700ed108b394,61ccbffd41fecb64372ff66f,"""","""","""","""","""",""""
87,101,7,"""",106020.6000000001,survey-text,5,266743,150,61c5edec03aa19ac7c1842d5,61ccbffd41fecb64372ff66f,61202a222a23700ed108b394,61ccbffd41fecb64372ff66f,"{""Explanation"":""Why? This could have happened because the animals were let out by someone who opened the gates.""}","""",test,"If the the gates in a zoo are closed, then the zoo animals do not escape. But suppose the gates in a zoo are closed, and then the animals do escape.","generate, all-constraints","the animals climed over the gates, the animals escaped through a hole, the zoo gates were not strong enough, the zookeeper forgot to lock the gates, some of the animals flew out because the roof was left open, or a worked opened the gate on purpose"
88,101,7,"""",44869,survey-text,6,311617,150,61c5edec03aa19ac7c1842d5,61ccbffd41fecb64372ff66f,61202a222a23700ed108b394,61ccbffd41fecb64372ff66f,"{""Explanation"":""Why? This could have happened because the slushie was cleaned up quick enough that it didn't stain the carpet.""}","""",test,"If a blue slushie is spilled on a carpet, then the carpet is stained blue. But suppose a blue slushie is spilled on a carpet, and then the carpet is not stained blue.","generate, all-constraints","the carpet was made of stain-resistant material, the carpet was the same color as the slushie, or that the carpet was treated with stain-resistant solution"
89,101,7,"""",91249.80000000005,survey-text,7,402875,150,61c5edec03aa19ac7c1842d5,61ccbffd41fecb64372ff66f,61202a222a23700ed108b394,61ccbffd41fecb64372ff66f,"{""Explanation"":""Why? This could have happened because the person likes breathing in wildfire smoke. Some people like the smell of wildfire smoke.""}","""",test,"If a person breathes in wildfire smoke, then they cough. But suppose a person breathes in wildfire smoke, and then they do not cough.","generate, all-constraints","they did not breathe in enough, they were wearing protective breathing equipment, they held their breath, they became unconscious, they took a cough suppressant, or they are less sensitive to smoke because they are a serial smoker"
90,101,7,"""",54967.60000000009,survey-text,8,457849,150,61c5edec03aa19ac7c1842d5,61ccbffd41fecb64372ff66f,61202a222a23700ed108b394,61ccbffd41fecb64372ff66f,"{""Explanation"":""Why? This could have happened because the ground was made of water and you can't make craters in water.""}","""",test,"If a meteor hits the ground, then a crater is made. But suppose a meteor hits the ground, and then a crater is not made.","generate, all-constraints","the meteor was tiny, there already was a hole in the ground, or the meteor hit the ground very lightly"
91,101,7,"""",48157.59999999986,survey-text,9,506012,150,61c5edec03aa19ac7c1842d5,61ccbffd41fecb64372ff66f,61202a222a23700ed108b394,61ccbffd41fecb64372ff66f,"{""Explanation"":""Why? This could have happened because the drum stick hit the cymbal in space and since there is no air in space than no sound waves could have been created.""}","""",test,"If a cymbal is hit with a drum stick, then it clangs. But suppose a cymbal is hit with a drum stick, and then it does not clang.","generate, all-constraints","the drumstick was made of soft material, the cymbal was padded, the cymbal was stuck, or that the cymbal was not hit hard enough"
92,101,7,"""",53038.09999999986,survey-text,10,559054,150,61c5edec03aa19ac7c1842d5,61ccbffd41fecb64372ff66f,61202a222a23700ed108b394,61ccbffd41fecb64372ff66f,"{""Explanation"":""Why? This could have happened because your dumb roommate left the freezer door open. Hypothetically speaking, naturally.""}","""",test,"If water is put in the freezer, then it turns into ice. But suppose water is put in the freezer, and then it does not turn into ice.","generate, all-constraints","the freezer was off, the freezer is broken, or the freezer was set too warm"
93,101,7,"""",80077,survey-text,11,639137,150,61c5edec03aa19ac7c1842d5,61ccbffd41fecb64372ff66f,61202a222a23700ed108b394,61ccbffd41fecb64372ff66f,"{""Explanation"":""Why? This could have happened because the person had previously undiscovered superhuman strength and it's impossible for their bones to break.""}","""",test,"If someone falls from a high height onto their outstretched arm, then they will break their wrist. But suppose someone falls from a high height onto their outstretched arm, and then they do not break their wrist.","generate, all-constraints","they landed on something soft, the person had resilient bones, the person was extremely light, or they landed in a way that their wrist bent instead of broke"
94,101,7,"""",25633.100000000093,survey-text,12,664779,150,61c5edec03aa19ac7c1842d5,61ccbffd41fecb64372ff66f,61202a222a23700ed108b394,61ccbffd41fecb64372ff66f,"{""Q0"":""10"",""Q1"":""6"",""Q2"":""7"",""Q3"":""Thank you!""}","""","""","""","""",""""
95,107,8,"[{""page_index"":0,""viewing_time"":10003.599999904633},{""page_index"":1,""viewing_time"":40666.90000009537},{""page_index"":2,""viewing_time"":31299.299999952316},{""page_index"":3,""viewing_time"":17878}]",99849.39999985695,instructions,0,99866,61,61c5edec03aa19ac7c1842d5,61ccbffe756646ae0ef540ff,5c509cad3e4c8400010ac228,61ccbffe756646ae0ef540ff,"""","""","""","""","""",""""
96,107,8,"""",66065.20000004768,survey-text,1,166024,61,61c5edec03aa19ac7c1842d5,61ccbffe756646ae0ef540ff,5c509cad3e4c8400010ac228,61ccbffe756646ae0ef540ff,"{""Q0"":""I commit to do my best to try to write high-quality explanation. I recognize that if I do not try my best to generate an explanation for each situation, I may not be paid.""}","""","""","""","""",""""
97,107,8,"[{""page_index"":0,""viewing_time"":2835.100000143051}]",2835.7000000476837,instructions,2,168862,61,61c5edec03aa19ac7c1842d5,61ccbffe756646ae0ef540ff,5c509cad3e4c8400010ac228,61ccbffe756646ae0ef540ff,"""","""","""","""","""",""""
98,107,8,"""",17894.400000095367,survey-multi-choice,3,186765,61,61c5edec03aa19ac7c1842d5,61ccbffe756646ae0ef540ff,5c509cad3e4c8400010ac228,61ccbffe756646ae0ef540ff,"{""Q0"":""Explanations for events."",""Q1"":""By writing text."",""Q2"":""Not making a good attempt to write a high-quality answer for each task.""}","[0,1,2]","""","""","""",""""
99,107,8,"[{""page_index"":0,""viewing_time"":2634.7000000476837}]",2635.2999999523163,instructions,4,189412,61,61c5edec03aa19ac7c1842d5,61ccbffe756646ae0ef540ff,5c509cad3e4c8400010ac228,61ccbffe756646ae0ef540ff,"""","""","""","""","""",""""
100,107,8,"""",42227.5,survey-text,5,231654,61,61c5edec03aa19ac7c1842d5,61ccbffe756646ae0ef540ff,5c509cad3e4c8400010ac228,61ccbffe756646ae0ef540ff,"{""Explanation"":""a heavy rain storm came in and killed all of the pests.""}","""",test,"If pest outbreaks occur on a farm, then crops in the farm die. But suppose pest outbreaks occur on a farm, and then crops in the farm do not die.","generate, single-constraint",the crops were previously sprayed with pesticides
101,107,8,"""",36587.5,survey-text,6,268250,61,61c5edec03aa19ac7c1842d5,61ccbffe756646ae0ef540ff,5c509cad3e4c8400010ac228,61ccbffe756646ae0ef540ff,"{""Explanation"":""someone swooped in just in time and caught the eggs carton.""}","""",test,"If an egg carton is dropped, then the eggs break. But suppose an egg carton is dropped, and then the eggs do not break.","generate, single-constraint",the egg carton landed on a soft surface
102,107,8,"""",37086.299999952316,survey-text,7,305349,61,61c5edec03aa19ac7c1842d5,61ccbffe756646ae0ef540ff,5c509cad3e4c8400010ac228,61ccbffe756646ae0ef540ff,"{""Explanation"":""the person that threw the rocks had terrible aim and could not hit the window.""}","""",test,"If rocks are thrown at a window, then the window breaks. But suppose rocks are thrown at a window, and then the window does not break.","generate, single-constraint",the window was made of shatter-proof glass
103,107,8,"""",52842.5,survey-text,8,358199,61,61c5edec03aa19ac7c1842d5,61ccbffe756646ae0ef540ff,5c509cad3e4c8400010ac228,61ccbffe756646ae0ef540ff,"{""Explanation"":""they landed on their hands instead and caught themselves.""}","""",test,"If someone falls on the sidewalk, then they scrape your knee. But suppose someone falls on the sidewalk, and then they do not scrape their knee.","generate, single-constraint",they are wearing knee pads
104,107,8,"""",20602.299999952316,survey-text,9,378819,61,61c5edec03aa19ac7c1842d5,61ccbffe756646ae0ef540ff,5c509cad3e4c8400010ac228,61ccbffe756646ae0ef540ff,"{""Explanation"":""this person was no allergic to poison ivy.""}","""",test,"If someone touches poison ivy, then they get a rash. But suppose touches poison ivy, and then they do not get a rash.","generate, single-constraint",they were wearing gloves
105,107,8,"""",36738.89999985695,survey-text,10,415566,61,61c5edec03aa19ac7c1842d5,61ccbffe756646ae0ef540ff,5c509cad3e4c8400010ac228,61ccbffe756646ae0ef540ff,"{""Explanation"":""they forgot to plus the drain, so the tub couldn't fill up because the water just went down the drain.""}","""",test,"If someone turns on a bathtub tap, then a bathtub fills with water. But suppose someone turns on a bathtub tap, and then the bathtub does not fill with water.","generate, single-constraint",the person did not pay their water bill so the supply was turned off
106,107,8,"""",29237.200000047684,survey-text,11,444817,61,61c5edec03aa19ac7c1842d5,61ccbffe756646ae0ef540ff,5c509cad3e4c8400010ac228,61ccbffe756646ae0ef540ff,"{""Explanation"":""the fire was put out so quickly that there wasn't enough smoke to set off the fire alarm.""}","""",test,"If a fire in an apartment occurs, then the fire alarm goes off. But suppose a fire in an apartment occurs, and then the fire alarm do not goes off.","generate, single-constraint",the batteries in the fire alarm were dead
107,107,8,"""",28324.700000047684,survey-text,12,473158,61,61c5edec03aa19ac7c1842d5,61ccbffe756646ae0ef540ff,5c509cad3e4c8400010ac228,61ccbffe756646ae0ef540ff,"{""Q0"":""10"",""Q1"":""9"",""Q2"":""10"",""Q3"":""Everything was clear and ran smoothly.  Have a wonderful day!""}","""","""","""","""",""""
108,110,6,"[{""page_index"":0,""viewing_time"":5130.29999999702},{""page_index"":1,""viewing_time"":5948.5},{""page_index"":2,""viewing_time"":14598.29999999702},{""page_index"":3,""viewing_time"":8152.0999999940395}]",33830.59999999404,instructions,0,33846,75,61c5edec03aa19ac7c1842d5,61ccbffcb5afa69a8c639512,5ded76922911274376e38065,61ccbffcb5afa69a8c639512,"""","""","""","""","""",""""
109,110,6,"""",60068.29999999702,survey-text,1,93957,75,61c5edec03aa19ac7c1842d5,61ccbffcb5afa69a8c639512,5ded76922911274376e38065,61ccbffcb5afa69a8c639512,"{""Q0"":""I commit to do my best to try to write high-quality explanations. I recognize that if I do not try my best to generate an explanation for each situation, I may not be paid.""}","""","""","""","""",""""
110,110,6,"[{""page_index"":0,""viewing_time"":1946.3999999910593}]",1946.8999999910593,instructions,2,95906,75,61c5edec03aa19ac7c1842d5,61ccbffcb5afa69a8c639512,5ded76922911274376e38065,61ccbffcb5afa69a8c639512,"""","""","""","""","""",""""
111,110,6,"""",16312.09999999404,survey-multi-choice,3,112225,75,61c5edec03aa19ac7c1842d5,61ccbffcb5afa69a8c639512,5ded76922911274376e38065,61ccbffcb5afa69a8c639512,"{""Q0"":""Explanations for events."",""Q1"":""By writing text."",""Q2"":""Not making a good attempt to write a high-quality answer for each task.""}","[0,1,2]","""","""","""",""""
112,110,6,"[{""page_index"":0,""viewing_time"":1411}]",1411.5,instructions,4,113639,75,61c5edec03aa19ac7c1842d5,61ccbffcb5afa69a8c639512,5ded76922911274376e38065,61ccbffcb5afa69a8c639512,"""","""","""","""","""",""""
113,110,6,"""",137159.5,survey-text,5,250811,75,61c5edec03aa19ac7c1842d5,61ccbffcb5afa69a8c639512,5ded76922911274376e38065,61ccbffcb5afa69a8c639512,"{""Explanation"":""the shelves were assembled with safety hooks that were attached to the walls.""}","""",test,"If a severe earthquake occurs near an office building, then the shelves in the office fall down. But suppose a severe earthquake occurs near an office building, and then the shelves in the office do not fall down.","generate, single-constraint",the shelves were bolted to the ground
114,110,6,"""",36775.5,survey-text,6,287637,75,61c5edec03aa19ac7c1842d5,61ccbffcb5afa69a8c639512,5ded76922911274376e38065,61ccbffcb5afa69a8c639512,"{""Explanation"":""the cannon was not loaded with enough confetti.""}","""",test,"If a confetti cannon is fired, then it produces a loud noise. But suppose a confetti cannon is fired, and then it does not produce a loud noise.","generate, single-constraint",the confetti cannon was defective
115,110,6,"""",99642.19999998808,survey-text,7,387290,75,61c5edec03aa19ac7c1842d5,61ccbffcb5afa69a8c639512,5ded76922911274376e38065,61ccbffcb5afa69a8c639512,"{""Explanation"":""an animal was lying on ground as it rained. After it rained, the animal got up and left.""}","""",test,"If it rains over grass, then the grass becomes wet. But suppose it rains, and then the grass does not become wet.","generate, single-constraint",there was a canopy over the grass
116,110,6,"""",60861.39999999106,survey-text,8,448161,75,61c5edec03aa19ac7c1842d5,61ccbffcb5afa69a8c639512,5ded76922911274376e38065,61ccbffcb5afa69a8c639512,"{""Explanation"":""the snowman was built next to a shed and is in the shade most of the day.""}","""",test,"If the weather gets hotter around a snowman in a backyard, then the snowman melts. But suppose the weather gets hotter around a snowman in a backyard, and then the snowman does not melt.","generate, single-constraint",the snowman was made of plastic
117,110,6,"""",33969.29999999702,survey-text,9,482140,75,61c5edec03aa19ac7c1842d5,61ccbffcb5afa69a8c639512,5ded76922911274376e38065,61ccbffcb5afa69a8c639512,"{""Explanation"":""the cat's tail was pulled by a child who had a light grip.""}","""",test,"If a cat's tail is pulled, then the cat yowls. But suppose a cat's tail is pulled, and then the cat does not yowl.","generate, single-constraint",the cat was dead
118,110,6,"""",31981.70000000298,survey-text,10,514127,75,61c5edec03aa19ac7c1842d5,61ccbffcb5afa69a8c639512,5ded76922911274376e38065,61ccbffcb5afa69a8c639512,"{""Explanation"":""the door was not aligned in the doorframe correctly.""}","""",test,"If a door is locked with a bolt, then it cannot be opened. But suppose a door is locked with a bolt, and then it is opened.","generate, single-constraint",the lock was broken
119,110,6,"""",79516.40000000596,survey-text,11,593654,75,61c5edec03aa19ac7c1842d5,61ccbffcb5afa69a8c639512,5ded76922911274376e38065,61ccbffcb5afa69a8c639512,"{""Explanation"":""the soil that was used was able to hold moisture for a long period of time.""}","""",test,"If plants are not watered, then they die. But suppose plants are not watered, and then they do not die.","generate, single-constraint",the plants were cacti
120,110,6,"""",20505.70000000298,survey-text,12,614167,75,61c5edec03aa19ac7c1842d5,61ccbffcb5afa69a8c639512,5ded76922911274376e38065,61ccbffcb5afa69a8c639512,"{""Q0"":""10"",""Q1"":""6"",""Q2"":""10"",""Q3"":""}","""","""","""","""",""""
121,109,3,"[{""page_index"":0,""viewing_time"":33379.200000000186},{""page_index"":1,""viewing_time"":104703.29999999981},{""page_index"":2,""viewing_time"":141048.2000000002},{""page_index"":3,""viewing_time"":15496.099999999627}]",294628,instructions,0,294633,81,61c5edec03aa19ac7c1842d5,61ccc092703dd703ae565747,5e3f4c676d06fc1b240e6021,61ccc092703dd703ae565747,"""","""","""","""","""",""""
122,109,3,"""",279693.80000000075,survey-text,1,574344,81,61c5edec03aa19ac7c1842d5,61ccc092703dd703ae565747,5e3f4c676d06fc1b240e6021,61ccc092703dd703ae565747,"{""Q0"":""I commit to do my best to try to write high-quality explanations. I recognize that if I do not try my best to generate an explanation for each situation, I may not be paid.""}","""","""","""","""",""""
123,109,3,"[{""page_index"":0,""viewing_time"":9085.5}]",9086,instructions,2,583432,81,61c5edec03aa19ac7c1842d5,61ccc092703dd703ae565747,5e3f4c676d06fc1b240e6021,61ccc092703dd703ae565747,"""","""","""","""","""",""""
124,109,3,"""",35155.40000000037,survey-multi-choice,3,618593,81,61c5edec03aa19ac7c1842d5,61ccc092703dd703ae565747,5e3f4c676d06fc1b240e6021,61ccc092703dd703ae565747,"{""Q0"":""Explanations for events."",""Q1"":""By writing text."",""Q2"":""Not making a good attempt to write a high-quality answer for each task.""}","[0,1,2]","""","""","""",""""
125,109,3,"[{""page_index"":0,""viewing_time"":3076.5}]",3076.9000000003725,instructions,4,621672,81,61c5edec03aa19ac7c1842d5,61ccc092703dd703ae565747,5e3f4c676d06fc1b240e6021,61ccc092703dd703ae565747,"""","""","""","""","""",""""
126,109,3,"""",164767.90000000037,survey-text,5,786449,81,61c5edec03aa19ac7c1842d5,61ccc092703dd703ae565747,5e3f4c676d06fc1b240e6021,61ccc092703dd703ae565747,"{""Explanation"":""The animals may have escaped under the gate or fence. The animals may also have escaped as the zoo keeper was entering or exiting.""}","""",test,"If the the gates in a zoo are closed, then the zoo animals do not escape. But suppose the gates in a zoo are closed, and then the animals do escape.","generate, all-constraints","the animals climed over the gates, the animals escaped through a hole, the zoo gates were not strong enough, the zookeeper forgot to lock the gates, some of the animals flew out because the roof was left open, or a worked opened the gate on purpose"
127,109,3,"""",247179.2000000002,survey-text,6,1033632,81,61c5edec03aa19ac7c1842d5,61ccc092703dd703ae565747,5e3f4c676d06fc1b240e6021,61ccc092703dd703ae565747,"{""Explanation"":""The blue slushie may have evaporated or absorbed into the carpet or it may have been cleaned up before staining.""}","""",test,"If a blue slushie is spilled on a carpet, then the carpet is stained blue. But suppose a blue slushie is spilled on a carpet, and then the carpet is not stained blue.","generate, all-constraints","the carpet was made of stain-resistant material, the carpet was the same color as the slushie, or that the carpet was treated with stain-resistant solution"
128,109,3,"""",109497.20000000019,survey-text,7,1143136,81,61c5edec03aa19ac7c1842d5,61ccc092703dd703ae565747,5e3f4c676d06fc1b240e6021,61ccc092703dd703ae565747,"{""Explanation"":""The water may not have frozen due an additive to the water either by someone or naturally.""}","""",test,"If water is put in the freezer, then it turns into ice. But suppose water is put in the freezer, and then it does not turn into ice.","generate, all-constraints","the freezer was off, the freezer is broken, or the freezer was set too warm"
129,109,3,"""",150643.69999999925,survey-text,8,1293784,81,61c5edec03aa19ac7c1842d5,61ccc092703dd703ae565747,5e3f4c676d06fc1b240e6021,61ccc092703dd703ae565747,"{""Explanation"":""The meteor may have landed on a mountain top or another hard surface or the meteor may have rolled due to the angle of which it hit the ground.""}","""",test,"If a meteor hits the ground, then a crater is made. But suppose a meteor hits the ground, and then a crater is not made.","generate, all-constraints","the meteor was tiny, there already was a hole in the ground, or the meteor hit the ground very lightly"
130,109,3,"""",126503.19999999925,survey-text,9,1420295,81,61c5edec03aa19ac7c1842d5,61ccc092703dd703ae565747,5e3f4c676d06fc1b240e6021,61ccc092703dd703ae565747,"{""Explanation"":""The smoke may not have been dense enough due to wind or size of wildfire.""}","""",test,"If a person breathes in wildfire smoke, then they cough. But suppose a person breathes in wildfire smoke, and then they do not cough.","generate, all-constraints","they did not breathe in enough, they were wearing protective breathing equipment, they held their breath, they became unconscious, they took a cough suppressant, or they are less sensitive to smoke because they are a serial smoker"
131,109,3,"""",139916,survey-text,10,1560215,81,61c5edec03aa19ac7c1842d5,61ccc092703dd703ae565747,5e3f4c676d06fc1b240e6021,61ccc092703dd703ae565747,"{""Explanation"":""The cymbal may not have been hit in the right location or spot.""}","""",test,"If a cymbal is hit with a drum stick, then it clangs. But suppose a cymbal is hit with a drum stick, and then it does not clang.","generate, all-constraints","the drumstick was made of soft material, the cymbal was padded, the cymbal was stuck, or that the cymbal was not hit hard enough"
132,109,3,"""",157241.09999999963,survey-text,11,1717463,81,61c5edec03aa19ac7c1842d5,61ccc092703dd703ae565747,5e3f4c676d06fc1b240e6021,61ccc092703dd703ae565747,"{""Explanation"":""The person may have landed in the one out of a thousand positions. The wrist may not have absorbed the entire impact.""}","""",test,"If someone falls from a high height onto their outstretched arm, then they will break their wrist. But suppose someone falls from a high height onto their outstretched arm, and then they do not break their wrist.","generate, all-constraints","they landed on something soft, the person had resilient bones, the person was extremely light, or they landed in a way that their wrist bent instead of broke"
133,109,3,"""",109984.19999999925,survey-text,12,1827456,81,61c5edec03aa19ac7c1842d5,61ccc092703dd703ae565747,5e3f4c676d06fc1b240e6021,61ccc092703dd703ae565747,"{""Q0"":""9"",""Q1"":""6"",""Q2"":""9"",""Q3"":""Interesting survey. Thank you. I hope that my participation will contribute to your research. Thank you again and stay safe.""}","""","""","""","""",""""
134,111,7,"[{""page_index"":0,""viewing_time"":6000.399999856949},{""page_index"":1,""viewing_time"":6415.100000143051},{""page_index"":2,""viewing_time"":11594.5},{""page_index"":3,""viewing_time"":6690.399999856949}]",30701.89999985695,instructions,0,30719,94,61c5edec03aa19ac7c1842d5,61ccc13eb2c00c8b6b057761,5ecd4acdb218ec085c6eefe6,61ccc13eb2c00c8b6b057761,"""","""","""","""","""",""""
135,111,7,"""",44086,survey-text,1,74839,94,61c5edec03aa19ac7c1842d5,61ccc13eb2c00c8b6b057761,5ecd4acdb218ec085c6eefe6,61ccc13eb2c00c8b6b057761,"{""Q0"":""I commit to do my best to try to write high quality explanations. I recognize that if I do not try my best to generate an explanation for each situation, I may not be paid.""}","""","""","""","""",""""
136,111,7,"[{""page_index"":0,""viewing_time"":2100.4000000953674}]",2100.7000000476837,instructions,2,76940,94,61c5edec03aa19ac7c1842d5,61ccc13eb2c00c8b6b057761,5ecd4acdb218ec085c6eefe6,61ccc13eb2c00c8b6b057761,"""","""","""","""","""",""""
137,111,7,"""",14705.600000143051,survey-multi-choice,3,91652,94,61c5edec03aa19ac7c1842d5,61ccc13eb2c00c8b6b057761,5ecd4acdb218ec085c6eefe6,61ccc13eb2c00c8b6b057761,"{""Q0"":""Explanations for events."",""Q1"":""By writing text."",""Q2"":""Not making a good attempt to write a high-quality answer for each task.""}","[0,1,2]","""","""","""",""""
138,111,7,"[{""page_index"":0,""viewing_time"":1211.7999999523163}]",1212,instructions,4,92867,94,61c5edec03aa19ac7c1842d5,61ccc13eb2c00c8b6b057761,5ecd4acdb218ec085c6eefe6,61ccc13eb2c00c8b6b057761,"""","""","""","""","""",""""
139,111,7,"""",74409.89999985695,survey-text,5,167286,94,61c5edec03aa19ac7c1842d5,61ccc13eb2c00c8b6b057761,5ecd4acdb218ec085c6eefe6,61ccc13eb2c00c8b6b057761,"{""Explanation"":""the water was not left in long enough to freeze ""}","""",test,"If water is put in the freezer, then it turns into ice. But suppose water is put in the freezer, and then it does not turn into ice.","generate, all-constraints","the freezer was off, the freezer is broken, or the freezer was set too warm"
140,111,7,"""",126319.39999985695,survey-text,6,293610,94,61c5edec03aa19ac7c1842d5,61ccc13eb2c00c8b6b057761,5ecd4acdb218ec085c6eefe6,61ccc13eb2c00c8b6b057761,"{""Explanation"":""The cymbal must be broken or malfunctioning at the point where no sounds is being made ""}","""",test,"If a cymbal is hit with a drum stick, then it clangs. But suppose a cymbal is hit with a drum stick, and then it does not clang.","generate, all-constraints","the drumstick was made of soft material, the cymbal was padded, the cymbal was stuck, or that the cymbal was not hit hard enough"
141,111,7,"""",41437.200000047684,survey-text,7,335056,94,61c5edec03aa19ac7c1842d5,61ccc13eb2c00c8b6b057761,5ecd4acdb218ec085c6eefe6,61ccc13eb2c00c8b6b057761,"{""Explanation"":""their wrist was already broken when they fell so the fall had no impact on the broken wrist already""}","""",test,"If someone falls from a high height onto their outstretched arm, then they will break their wrist. But suppose someone falls from a high height onto their outstretched arm, and then they do not break their wrist.","generate, all-constraints","they landed on something soft, the person had resilient bones, the person was extremely light, or they landed in a way that their wrist bent instead of broke"
142,111,7,"""",122532.29999995232,survey-text,8,457593,94,61c5edec03aa19ac7c1842d5,61ccc13eb2c00c8b6b057761,5ecd4acdb218ec085c6eefe6,61ccc13eb2c00c8b6b057761,"{""Explanation"":""the slushie was not on the floor long enough as it was picked up and clean immediately hence no stain""}","""",test,"If a blue slushie is spilled on a carpet, then the carpet is stained blue. But suppose a blue slushie is spilled on a carpet, and then the carpet is not stained blue.","generate, all-constraints","the carpet was made of stain-resistant material, the carpet was the same color as the slushie, or that the carpet was treated with stain-resistant solution"
143,111,7,"""",115066.29999995232,survey-text,9,572671,94,61c5edec03aa19ac7c1842d5,61ccc13eb2c00c8b6b057761,5ecd4acdb218ec085c6eefe6,61ccc13eb2c00c8b6b057761,"{""Explanation"":""the adrenaline in them was pumping so hard it bypassed the coughing and pain issue and allowed them to keep going""}","""",test,"If a person breathes in wildfire smoke, then they cough. But suppose a person breathes in wildfire smoke, and then they do not cough.","generate, all-constraints","they did not breathe in enough, they were wearing protective breathing equipment, they held their breath, they became unconscious, they took a cough suppressant, or they are less sensitive to smoke because they are a serial smoker"
144,111,7,"""",21792.299999952316,survey-text,10,594470,94,61c5edec03aa19ac7c1842d5,61ccc13eb2c00c8b6b057761,5ecd4acdb218ec085c6eefe6,61ccc13eb2c00c8b6b057761,"{""Explanation"":""it hit the ocean and was cushioned on impacted by the water""}","""",test,"If a meteor hits the ground, then a crater is made. But suppose a meteor hits the ground, and then a crater is not made.","generate, all-constraints","the meteor was tiny, there already was a hole in the ground, or the meteor hit the ground very lightly"
145,111,7,"""",58185.800000190735,survey-text,11,652666,94,61c5edec03aa19ac7c1842d5,61ccc13eb2c00c8b6b057761,5ecd4acdb218ec085c6eefe6,61ccc13eb2c00c8b6b057761,"{""Explanation"":""some protestors decided to break in and release the animals in the wild""}","""",test,"If the the gates in a zoo are closed, then the zoo animals do not escape. But suppose the gates in a zoo are closed, and then the animals do escape.","generate, all-constraints","the animals climed over the gates, the animals escaped through a hole, the zoo gates were not strong enough, the zookeeper forgot to lock the gates, some of the animals flew out because the roof was left open, or a worked opened the gate on purpose"
146,111,7,"""",7979.700000047684,survey-text,12,660651,94,61c5edec03aa19ac7c1842d5,61ccc13eb2c00c8b6b057761,5ecd4acdb218ec085c6eefe6,61ccc13eb2c00c8b6b057761,"{""Q0"":""10"",""Q1"":""2"",""Q2"":""9"",""Q3"":""}","""","""","""","""",""""
147,113,1,"[{""page_index"":0,""viewing_time"":56227},{""page_index"":1,""viewing_time"":16784.89999999851},{""page_index"":2,""viewing_time"":24213.300000000745},{""page_index"":3,""viewing_time"":24453.199999999255}]",121679.89999999851,instructions,0,121692,72,61c5edec03aa19ac7c1842d5,61ccdb016a02b26f9ad174e5,5dda51f040460e9a0f5f6a70,61ccdb016a02b26f9ad174e5,"""","""","""","""","""",""""
148,113,1,"""",57322.099999997765,survey-text,1,179050,72,61c5edec03aa19ac7c1842d5,61ccdb016a02b26f9ad174e5,5dda51f040460e9a0f5f6a70,61ccdb016a02b26f9ad174e5,"{""Q0"":""I commit to do my best to try to write high-quality explanations. I recognize that if I do not try my best to generate an explanation for each situation, I may not be paid.""}","""","""","""","""",""""
149,113,1,"[{""page_index"":0,""viewing_time"":4840.5}]",4840.800000000745,instructions,2,183893,72,61c5edec03aa19ac7c1842d5,61ccdb016a02b26f9ad174e5,5dda51f040460e9a0f5f6a70,61ccdb016a02b26f9ad174e5,"""","""","""","""","""",""""
150,113,1,"""",15611.800000000745,survey-multi-choice,3,199508,72,61c5edec03aa19ac7c1842d5,61ccdb016a02b26f9ad174e5,5dda51f040460e9a0f5f6a70,61ccdb016a02b26f9ad174e5,"{""Q0"":""Explanations for events."",""Q1"":""By writing text."",""Q2"":""Not making a good attempt to write a high-quality answer for each task.""}","[0,1,2]","""","""","""",""""
151,113,1,"[{""page_index"":0,""viewing_time"":1697.0999999977648}]",1697.8999999985099,instructions,4,201213,72,61c5edec03aa19ac7c1842d5,61ccdb016a02b26f9ad174e5,5dda51f040460e9a0f5f6a70,61ccdb016a02b26f9ad174e5,"""","""","""","""","""",""""
152,113,1,"""",130859.90000000224,survey-text,5,332080,72,61c5edec03aa19ac7c1842d5,61ccdb016a02b26f9ad174e5,5dda51f040460e9a0f5f6a70,61ccdb016a02b26f9ad174e5,"{""Explanation"":""This could have happened because the said skyscraper was actually being built as part of a futuristic hotel all the way out in space. When the piano was dropped from the skyscraper, it escaped outside of the gravity well and ended up free-floating in the vacuum of space instead of shattering at the bottom of the building. ""}","""",test,"If a piano is dropped from a skyscraper, then the piano shatters. But suppose a piano is dropped from a skyscraper, and then the piano does not shatter.","generate, all-constraints","the piano landed on a mattress, the piano landed on feathers, the piano landed on a trampoline, the piano was encased in a very protective foam, the piano was made of steel, the piano was made of plastic, the piano swung instead because it was attached to a large crane by a rope, or Spiderman caught the piano in a web"
153,113,1,"""",130888.5,survey-text,6,462975,72,61c5edec03aa19ac7c1842d5,61ccdb016a02b26f9ad174e5,5dda51f040460e9a0f5f6a70,61ccdb016a02b26f9ad174e5,"{""Explanation"":""This could have happened because the pressing down of the gas pedal simultaneously activated a hidden rocket propulsion device at the front of the car that generated a greater force that counteracted with the increase in force generated by a greater combustion of the gasoline. As a result, instead of speeding up, the car started to slow down and thus did not drive very quickly.""}","""",test,"If a car's gas pedal is pressed all the way down, then the car drives very quickly. But suppose a car's gas pedal is pressed all the way down, and then the car does not drive very quickly.","generate, all-constraints","the car was in neutral, the gas pedal was faulty, the gas pedal was disconnected, the car was carrying a lot of weight, the car had not been started, the computer in the car was broken, or the car was stuck in a ditch"
154,113,1,"""",139420.8999999985,survey-text,7,602403,72,61c5edec03aa19ac7c1842d5,61ccdb016a02b26f9ad174e5,5dda51f040460e9a0f5f6a70,61ccdb016a02b26f9ad174e5,"{""Explanation"":""This could have happened because the individual walking through the metal detector with the metal watch was actually a spy employed by the United States of America who is currently on a mission to undermine the secret plans of an alien organization based in Antarctica. The said metal watch contains a special electromagnetic carbon coating that prevents the metal detector from detecting the metallic properties of the watch, hence the alarms did not go off. ""}","""",test,"If someone walks through a metal detector with a metal watch, then alarms go off. But suppose someone walks through a metal detector with a metal watch, and then alarms do not go off.","generate, all-constraints","the metal detector was faulty, the metal detector can only detect certain kinds of metals, the watch had only tiny traces of metal that were undetectable, or the metal detector was unplugged"
155,113,1,"""",128131.89999999851,survey-text,8,730540,72,61c5edec03aa19ac7c1842d5,61ccdb016a02b26f9ad174e5,5dda51f040460e9a0f5f6a70,61ccdb016a02b26f9ad174e5,"{""Explanation"":""This could have happened because the apple contained a radioactive worm that has psychic powers. When the worm felt the apple detaching from the tree, it unconsciously activated its psychic powers to grant itself and thus the apple levitation to protect itselfhence the apple does not hit the ground. ""}","""",test,"If an apple falls from a tree, then it hits the ground. But suppose an apple falls from a tree, and then it does not hit the ground.","generate, all-constraints","someone caught the apple, the apple fell onto a branch, the apple was sealed in a bag which got stuck in the tree, the apple landed in a basket, the apple landed in a hammock, or the apple landed on Isaac Newton's head"
156,113,1,"""",180780.19999999925,survey-text,9,911324,72,61c5edec03aa19ac7c1842d5,61ccdb016a02b26f9ad174e5,5dda51f040460e9a0f5f6a70,61ccdb016a02b26f9ad174e5,"{""Explanation"":""This could have happened because the individual doing the jumping jacks was actually a mad scientist/colleague of Hank Pym from Antman and was testing both the enlarging and shrinking serums. The said individual shrunk himself so he became super tiny and also enlarged the tower of dominoes, and as a result the tiny shock waves created by the tiny mad scientist barely affected the now humungous tower of dominoes (hence the tower of dominos did not fall over). ""}","""",test,"If someone does 50 jumping jacks in a room with a tower of dominos, then the tower of dominos falls over. But suppose someone does 50 jumping jacks in a room with a tower of dominos, and then the tower of dominos does not fall over.","generate, all-constraints","they were jumping far away from the dominos, the floor was built to absorb shocks, the dominos were glued to the ground, the person was jumping lightly, or the person was jumping very slowly"
157,113,1,"""",278787.40000000224,survey-text,10,1190112,72,61c5edec03aa19ac7c1842d5,61ccdb016a02b26f9ad174e5,5dda51f040460e9a0f5f6a70,61ccdb016a02b26f9ad174e5,"{""Explanation"":""This could have happened because after the individual drank all that coffee, a time traveler from the future arrived to inform that individual that him drinking the coffee and not sleeping will put the world in peril. In order to save the world, the time traveler took out a special syringe containing nanobots from the future that would surround the caffeine molecules and inhibit them while at the same time stimulating brain activity and injected the individual with it. ""}","""",test,"If someone drinks lots of coffee , then they have trouble sleeping. But suppose someone drinks lots of coffee, and then they have do not have trouble sleeping.","generate, all-constraints","they drank decaf coffee, they were already sleep deprived, they took a sleeping pill, they were shot with a tranquilizer dart, they had a high tolerance for caffeine, or they drank so much caffeine that their body crashed"
158,113,1,"""",112152.60000000149,survey-text,11,1302273,72,61c5edec03aa19ac7c1842d5,61ccdb016a02b26f9ad174e5,5dda51f040460e9a0f5f6a70,61ccdb016a02b26f9ad174e5,"{""Explanation"":""This could have happened because a mad scientist was trying to develop a technique that would turn thoughts/ideas into physical matter. To test his invention, the scientist imagined he had an amazing idea, upon which his device activated and suddenly an activated light bulb on top of his head materialized out of nowhere even though it wasn't plugged into anything. ""}","""",test,"If a light is unplugged, then the light cannot turn on. But suppose a light is unplugged, and then the light can turn on.","generate, all-constraints","the light also has an internal battery source, the room was haunted by a ghost who turned on the light, or that the light was struck by lighting that was temporarily electrically charged"
159,113,1,"""",11078.5,survey-text,12,1313359,72,61c5edec03aa19ac7c1842d5,61ccdb016a02b26f9ad174e5,5dda51f040460e9a0f5f6a70,61ccdb016a02b26f9ad174e5,"{""Q0"":""9"",""Q1"":""8"",""Q2"":""10"",""Q3"":""}","""","""","""","""",""""
160,112,5,"[{""page_index"":0,""viewing_time"":10988},{""page_index"":1,""viewing_time"":12515},{""page_index"":2,""viewing_time"":30509},{""page_index"":3,""viewing_time"":13013}]",67026,instructions,0,67028,58,61c5edec03aa19ac7c1842d5,61ccdb02de820278cd35be90,5c024be169406e00014e0b8e,61ccdb02de820278cd35be90,"""","""","""","""","""",""""
161,112,5,"""",44350,survey-text,1,111394,58,61c5edec03aa19ac7c1842d5,61ccdb02de820278cd35be90,5c024be169406e00014e0b8e,61ccdb02de820278cd35be90,"{""Q0"":""I commit to do my best to try to write high-quality explanations. I recognize that if I do not try my best to generate an explanation for each situation, I may not be paid.""}","""","""","""","""",""""
162,112,5,"[{""page_index"":0,""viewing_time"":5297}]",5297,instructions,2,116690,58,61c5edec03aa19ac7c1842d5,61ccdb02de820278cd35be90,5c024be169406e00014e0b8e,61ccdb02de820278cd35be90,"""","""","""","""","""",""""
163,112,5,"""",12633,survey-multi-choice,3,129326,58,61c5edec03aa19ac7c1842d5,61ccdb02de820278cd35be90,5c024be169406e00014e0b8e,61ccdb02de820278cd35be90,"{""Q0"":""Explanations for events."",""Q1"":""By writing text."",""Q2"":""Not making a good attempt to write a high-quality answer for each task.""}","[0,1,2]","""","""","""",""""
164,112,5,"[{""page_index"":0,""viewing_time"":1308}]",1308,instructions,4,130636,58,61c5edec03aa19ac7c1842d5,61ccdb02de820278cd35be90,5c024be169406e00014e0b8e,61ccdb02de820278cd35be90,"""","""","""","""","""",""""
165,112,5,"""",133456,survey-text,5,264095,58,61c5edec03aa19ac7c1842d5,61ccdb02de820278cd35be90,5c024be169406e00014e0b8e,61ccdb02de820278cd35be90,"{""Explanation"":""a gust of wind from a nearby tornado caused it to fly up into the air""}","""",test,"If an apple falls from a tree, then it hits the ground. But suppose an apple falls from a tree, and then it does not hit the ground.","generate, all-constraints","someone caught the apple, the apple fell onto a branch, the apple was sealed in a bag which got stuck in the tree, the apple landed in a basket, the apple landed in a hammock, or the apple landed on Isaac Newton's head"
166,112,5,"""",144130,survey-text,6,408227,58,61c5edec03aa19ac7c1842d5,61ccdb02de820278cd35be90,5c024be169406e00014e0b8e,61ccdb02de820278cd35be90,"{""Explanation"":""this person spends all day attending boring Zoom meetings""}","""",test,"If someone drinks lots of coffee , then they have trouble sleeping. But suppose someone drinks lots of coffee, and then they have do not have trouble sleeping.","generate, all-constraints","they drank decaf coffee, they were already sleep deprived, they took a sleeping pill, they were shot with a tranquilizer dart, they had a high tolerance for caffeine, or they drank so much caffeine that their body crashed"
167,112,5,"""",168577,survey-text,7,576809,58,61c5edec03aa19ac7c1842d5,61ccdb02de820278cd35be90,5c024be169406e00014e0b8e,61ccdb02de820278cd35be90,"{""Explanation"":""the person had enclosed the watch in a box that the metal detector was not able to see through""}","""",test,"If someone walks through a metal detector with a metal watch, then alarms go off. But suppose someone walks through a metal detector with a metal watch, and then alarms do not go off.","generate, all-constraints","the metal detector was faulty, the metal detector can only detect certain kinds of metals, the watch had only tiny traces of metal that were undetectable, or the metal detector was unplugged"
168,112,5,"""",369918,survey-text,8,946729,58,61c5edec03aa19ac7c1842d5,61ccdb02de820278cd35be90,5c024be169406e00014e0b8e,61ccdb02de820278cd35be90,"{""Explanation"":""pedaling the attached bicycle can also temporarily generate power""}","""",test,"If a light is unplugged, then the light cannot turn on. But suppose a light is unplugged, and then the light can turn on.","generate, all-constraints","the light also has an internal battery source, the room was haunted by a ghost who turned on the light, or that the light was struck by lighting that was temporarily electrically charged"
169,112,5,"""",139212,survey-text,9,1085947,58,61c5edec03aa19ac7c1842d5,61ccdb02de820278cd35be90,5c024be169406e00014e0b8e,61ccdb02de820278cd35be90,"{""Explanation"":""the tower of dominoes was actually depicted in a photo frame on the desk, rather than a stack of physical dominoes.""}","""",test,"If someone does 50 jumping jacks in a room with a tower of dominos, then the tower of dominos falls over. But suppose someone does 50 jumping jacks in a room with a tower of dominos, and then the tower of dominos does not fall over.","generate, all-constraints","they were jumping far away from the dominos, the floor was built to absorb shocks, the dominos were glued to the ground, the person was jumping lightly, or the person was jumping very slowly"
170,112,5,"""",126191,survey-text,10,1212142,58,61c5edec03aa19ac7c1842d5,61ccdb02de820278cd35be90,5c024be169406e00014e0b8e,61ccdb02de820278cd35be90,"{""Explanation"":""the skyscraper was on the moon, so there was no gravity to pull it down""}","""",test,"If a piano is dropped from a skyscraper, then the piano shatters. But suppose a piano is dropped from a skyscraper, and then the piano does not shatter.","generate, all-constraints","the piano landed on a mattress, the piano landed on feathers, the piano landed on a trampoline, the piano was encased in a very protective foam, the piano was made of steel, the piano was made of plastic, the piano swung instead because it was attached to a large crane by a rope, or Spiderman caught the piano in a web"
171,112,5,"""",105020,survey-text,11,1317167,58,61c5edec03aa19ac7c1842d5,61ccdb02de820278cd35be90,5c024be169406e00014e0b8e,61ccdb02de820278cd35be90,"{""Explanation"":""there were some squirrels that got caught in the engine and caused the car to malfunction""}","""",test,"If a car's gas pedal is pressed all the way down, then the car drives very quickly. But suppose a car's gas pedal is pressed all the way down, and then the car does not drive very quickly.","generate, all-constraints","the car was in neutral, the gas pedal was faulty, the gas pedal was disconnected, the car was carrying a lot of weight, the car had not been started, the computer in the car was broken, or the car was stuck in a ditch"
172,117,6,"[{""page_index"":0,""viewing_time"":7291.5},{""page_index"":1,""viewing_time"":3733.5},{""page_index"":2,""viewing_time"":19422.19999999553},{""page_index"":3,""viewing_time"":10573}]",41020.79999999702,instructions,0,41031,76,61c5edec03aa19ac7c1842d5,61d3098c14899baaae48d666,5dfdc45e617219a8e2e05c26,61d3098c14899baaae48d666,"""","""","""","""","""",""""
173,117,6,"""",56241.10000000149,survey-text,1,97282,76,61c5edec03aa19ac7c1842d5,61d3098c14899baaae48d666,5dfdc45e617219a8e2e05c26,61d3098c14899baaae48d666,"{""Q0"":""I commit to do my best and try to write high-quality explanations. I recognize that if I do not try my best to generate an explanation for each situation, I may not be paid. ""}","""","""","""","""",""""
174,117,6,"[{""page_index"":0,""viewing_time"":2952.39999999851}]",2952.5,instructions,2,100235,76,61c5edec03aa19ac7c1842d5,61d3098c14899baaae48d666,5dfdc45e617219a8e2e05c26,61d3098c14899baaae48d666,"""","""","""","""","""",""""
175,117,6,"""",16138.90000000596,survey-multi-choice,3,116377,76,61c5edec03aa19ac7c1842d5,61d3098c14899baaae48d666,5dfdc45e617219a8e2e05c26,61d3098c14899baaae48d666,"{""Q0"":""Explanations for events."",""Q1"":""By writing text."",""Q2"":""Not making a good attempt to write a high-quality answer for each task.""}","[0,1,2]","""","""","""",""""
176,117,6,"[{""page_index"":0,""viewing_time"":1881.8000000044703}]",1881.8999999985099,instructions,4,118260,76,61c5edec03aa19ac7c1842d5,61d3098c14899baaae48d666,5dfdc45e617219a8e2e05c26,61d3098c14899baaae48d666,"""","""","""","""","""",""""
177,117,6,"""",71310.70000000298,survey-text,5,189575,76,61c5edec03aa19ac7c1842d5,61d3098c14899baaae48d666,5dfdc45e617219a8e2e05c26,61d3098c14899baaae48d666,"{""Explanation"":""The building could have been earthquake resistance. This would have stopped it from shaking and thus prevented the shelves from falling down. ""}","""",test,"If a severe earthquake occurs near an office building, then the shelves in the office fall down. But suppose a severe earthquake occurs near an office building, and then the shelves in the office do not fall down.","generate, single-constraint",the shelves were bolted to the ground
178,117,6,"""",115734.40000000596,survey-text,6,305311,76,61c5edec03aa19ac7c1842d5,61d3098c14899baaae48d666,5dfdc45e617219a8e2e05c26,61d3098c14899baaae48d666,"{""Explanation"":""The snowman could have been a paper snowman that a child gave to her parents after school which they proceeded to put outback for decoration. ""}","""",test,"If the weather gets hotter around a snowman in a backyard, then the snowman melts. But suppose the weather gets hotter around a snowman in a backyard, and then the snowman does not melt.","generate, single-constraint",the snowman was made of plastic
179,117,6,"""",112055.19999999553,survey-text,7,417370,76,61c5edec03aa19ac7c1842d5,61d3098c14899baaae48d666,5dfdc45e617219a8e2e05c26,61d3098c14899baaae48d666,"{""Explanation"":""The confetti cannon was shot in a simulation. The computer scientist were testing the trajectory and distance it would shoot based off different input values and had not yet programmed it for sound. ""}","""",test,"If a confetti cannon is fired, then it produces a loud noise. But suppose a confetti cannon is fired, and then it does not produce a loud noise.","generate, single-constraint",the confetti cannon was defective
180,117,6,"""",240269.3999999985,survey-text,8,657643,76,61c5edec03aa19ac7c1842d5,61d3098c14899baaae48d666,5dfdc45e617219a8e2e05c26,61d3098c14899baaae48d666,"{""Explanation"":""The door was cut through the wall with a flamethrower and removed.""}","""",test,"If a door is locked with a bolt, then it cannot be opened. But suppose a door is locked with a bolt, and then it is opened.","generate, single-constraint",the lock was broken
181,117,6,"""",27716.70000000298,survey-text,9,685363,76,61c5edec03aa19ac7c1842d5,61d3098c14899baaae48d666,5dfdc45e617219a8e2e05c26,61d3098c14899baaae48d666,"{""Explanation"":""The cat was sleeping and did not feel her tail being pulled.""}","""",test,"If a cat's tail is pulled, then the cat yowls. But suppose a cat's tail is pulled, and then the cat does not yowl.","generate, single-constraint",the cat was dead
182,117,6,"""",38540.89999999851,survey-text,10,723906,76,61c5edec03aa19ac7c1842d5,61d3098c14899baaae48d666,5dfdc45e617219a8e2e05c26,61d3098c14899baaae48d666,"{""Explanation"":""It was fake grass used indoors and protected by the building.""}","""",test,"If it rains over grass, then the grass becomes wet. But suppose it rains, and then the grass does not become wet.","generate, single-constraint",there was a canopy over the grass
183,117,6,"""",65503.40000000596,survey-text,11,789413,76,61c5edec03aa19ac7c1842d5,61d3098c14899baaae48d666,5dfdc45e617219a8e2e05c26,61d3098c14899baaae48d666,"{""Explanation"":""The plants were submerged in water and did not need to be watered since they got all of their nutrients from the surrounding environment.""}","""",test,"If plants are not watered, then they die. But suppose plants are not watered, and then they do not die.","generate, single-constraint",the plants were cacti
184,117,6,"""",15063,survey-text,12,804478,76,61c5edec03aa19ac7c1842d5,61d3098c14899baaae48d666,5dfdc45e617219a8e2e05c26,61d3098c14899baaae48d666,"{""Q0"":""9"",""Q1"":""8"",""Q2"":""6"",""Q3"":""}","""","""","""","""",""""
185,115,5,"[{""page_index"":0,""viewing_time"":9399.600000023842},{""page_index"":1,""viewing_time"":5648.299999982119},{""page_index"":2,""viewing_time"":53798.20000001788},{""page_index"":3,""viewing_time"":10093}]",78939.80000001192,instructions,0,78944,137,61c5edec03aa19ac7c1842d5,61ce1e9ee75f1f200aa13b02,60fefa8d26f46e84a295b223,61ce1e9ee75f1f200aa13b02,"""","""","""","""","""",""""
186,115,5,"""",66069.5,survey-text,1,145030,137,61c5edec03aa19ac7c1842d5,61ce1e9ee75f1f200aa13b02,60fefa8d26f46e84a295b223,61ce1e9ee75f1f200aa13b02,"{""Q0"":""I commit to do my best to try to write high-quality explanations. I recognize that if I do not try my best to generate an explanation for each situation, I may not be paid. ""}","""","""","""","""",""""
187,115,5,"[{""page_index"":0,""viewing_time"":2906.2999999821186}]",2906.5,instructions,2,147937,137,61c5edec03aa19ac7c1842d5,61ce1e9ee75f1f200aa13b02,60fefa8d26f46e84a295b223,61ce1e9ee75f1f200aa13b02,"""","""","""","""","""",""""
188,115,5,"""",10218.5,survey-multi-choice,3,158158,137,61c5edec03aa19ac7c1842d5,61ce1e9ee75f1f200aa13b02,60fefa8d26f46e84a295b223,61ce1e9ee75f1f200aa13b02,"{""Q0"":""Explanations for events."",""Q1"":""By writing text."",""Q2"":""Not making a good attempt to write a high-quality answer for each task.""}","[0,1,2]","""","""","""",""""
189,115,5,"[{""page_index"":0,""viewing_time"":6867.5}]",6867.699999988079,instructions,4,165027,137,61c5edec03aa19ac7c1842d5,61ce1e9ee75f1f200aa13b02,60fefa8d26f46e84a295b223,61ce1e9ee75f1f200aa13b02,"""","""","""","""","""",""""
190,115,5,"""",103271.20000001788,survey-text,5,268304,137,61c5edec03aa19ac7c1842d5,61ce1e9ee75f1f200aa13b02,60fefa8d26f46e84a295b223,61ce1e9ee75f1f200aa13b02,"{""Explanation"":""The piano landed in a net that was hanging from an emergency air lift helicopter on its way to the hospital. ""}","""",test,"If a piano is dropped from a skyscraper, then the piano shatters. But suppose a piano is dropped from a skyscraper, and then the piano does not shatter.","generate, all-constraints","the piano landed on a mattress, the piano landed on feathers, the piano landed on a trampoline, the piano was encased in a very protective foam, the piano was made of steel, the piano was made of plastic, the piano swung instead because it was attached to a large crane by a rope, or Spiderman caught the piano in a web"
191,115,5,"""",80915.19999998808,survey-text,6,349222,137,61c5edec03aa19ac7c1842d5,61ce1e9ee75f1f200aa13b02,60fefa8d26f46e84a295b223,61ce1e9ee75f1f200aa13b02,"{""Explanation"":""Someone tampered with the gas so it couldnt combust and create energy to go. ""}","""",test,"If a car's gas pedal is pressed all the way down, then the car drives very quickly. But suppose a car's gas pedal is pressed all the way down, and then the car does not drive very quickly.","generate, all-constraints","the car was in neutral, the gas pedal was faulty, the gas pedal was disconnected, the car was carrying a lot of weight, the car had not been started, the computer in the car was broken, or the car was stuck in a ditch"
192,115,5,"""",58386.5,survey-text,7,407612,137,61c5edec03aa19ac7c1842d5,61ce1e9ee75f1f200aa13b02,60fefa8d26f46e84a295b223,61ce1e9ee75f1f200aa13b02,"{""Explanation"":""in mid air, the apple was caught in the beak of a giant bird and taken to its offspring. ""}","""",test,"If an apple falls from a tree, then it hits the ground. But suppose an apple falls from a tree, and then it does not hit the ground.","generate, all-constraints","someone caught the apple, the apple fell onto a branch, the apple was sealed in a bag which got stuck in the tree, the apple landed in a basket, the apple landed in a hammock, or the apple landed on Isaac Newton's head"
193,115,5,"""",62396.20000001788,survey-text,8,470011,137,61c5edec03aa19ac7c1842d5,61ce1e9ee75f1f200aa13b02,60fefa8d26f46e84a295b223,61ce1e9ee75f1f200aa13b02,"{""Explanation"":""after drinking lots of coffee, the person ran a 5K race and was able to sleep at night without trouble. ""}","""",test,"If someone drinks lots of coffee , then they have trouble sleeping. But suppose someone drinks lots of coffee, and then they have do not have trouble sleeping.","generate, all-constraints","they drank decaf coffee, they were already sleep deprived, they took a sleeping pill, they were shot with a tranquilizer dart, they had a high tolerance for caffeine, or they drank so much caffeine that their body crashed"
194,115,5,"""",188075,survey-text,9,658090,137,61c5edec03aa19ac7c1842d5,61ce1e9ee75f1f200aa13b02,60fefa8d26f46e84a295b223,61ce1e9ee75f1f200aa13b02,"{""Explanation"":""the watch was ingested beforehand, so it was mistaken as a joint plate replacement so the machine didnt recognize it. ""}","""",test,"If someone walks through a metal detector with a metal watch, then alarms go off. But suppose someone walks through a metal detector with a metal watch, and then alarms do not go off.","generate, all-constraints","the metal detector was faulty, the metal detector can only detect certain kinds of metals, the watch had only tiny traces of metal that were undetectable, or the metal detector was unplugged"
195,115,5,"""",73435.70000001788,survey-text,10,731530,137,61c5edec03aa19ac7c1842d5,61ce1e9ee75f1f200aa13b02,60fefa8d26f46e84a295b223,61ce1e9ee75f1f200aa13b02,"{""Explanation"":""the tower of dominoes was incased in ice so it was frozen and couldnt move""}","""",test,"If someone does 50 jumping jacks in a room with a tower of dominos, then the tower of dominos falls over. But suppose someone does 50 jumping jacks in a room with a tower of dominos, and then the tower of dominos does not fall over.","generate, all-constraints","they were jumping far away from the dominos, the floor was built to absorb shocks, the dominos were glued to the ground, the person was jumping lightly, or the person was jumping very slowly"
196,115,5,"""",94998.19999998808,survey-text,11,826533,137,61c5edec03aa19ac7c1842d5,61ce1e9ee75f1f200aa13b02,60fefa8d26f46e84a295b223,61ce1e9ee75f1f200aa13b02,"{""Explanation"":""a person grabbed the plug and placed in a fruit and used the citric acid to produce electricity. ""}","""",test,"If a light is unplugged, then the light cannot turn on. But suppose a light is unplugged, and then the light can turn on.","generate, all-constraints","the light also has an internal battery source, the room was haunted by a ghost who turned on the light, or that the light was struck by lighting that was temporarily electrically charged"
197,115,5,"""",25288.90000000596,survey-text,12,851826,137,61c5edec03aa19ac7c1842d5,61ce1e9ee75f1f200aa13b02,60fefa8d26f46e84a295b223,61ce1e9ee75f1f200aa13b02,"{""Q0"":""9"",""Q1"":""6"",""Q2"":""6"",""Q3"":""n/a""}","""","""","""","""",""""
198,116,7,"[{""page_index"":0,""viewing_time"":17684},{""page_index"":1,""viewing_time"":9047.000000000004},{""page_index"":2,""viewing_time"":43057},{""page_index"":3,""viewing_time"":9021}]",78810,instructions,0,78817,131,61c5edec03aa19ac7c1842d5,61ce1eaf3c1a84bceab6c661,60ea0984f30f7e0a9b839e3b,61ce1eaf3c1a84bceab6c661,"""","""","""","""","""",""""
199,116,7,"""",90436,survey-text,1,169262,131,61c5edec03aa19ac7c1842d5,61ce1eaf3c1a84bceab6c661,60ea0984f30f7e0a9b839e3b,61ce1eaf3c1a84bceab6c661,"{""Q0"":""I commit to do my best to try to write high-quality explanations. I recognize that if I do not try my best to generate an explanation for each situation, I may not be paid. ""}","""","""","""","""",""""
200,116,7,"[{""page_index"":0,""viewing_time"":2028}]",2028,instructions,2,171291,131,61c5edec03aa19ac7c1842d5,61ce1eaf3c1a84bceab6c661,60ea0984f30f7e0a9b839e3b,61ce1eaf3c1a84bceab6c661,"""","""","""","""","""",""""
201,116,7,"""",14781,survey-multi-choice,3,186076,131,61c5edec03aa19ac7c1842d5,61ce1eaf3c1a84bceab6c661,60ea0984f30f7e0a9b839e3b,61ce1eaf3c1a84bceab6c661,"{""Q0"":""Explanations for events."",""Q1"":""By writing text."",""Q2"":""Not making a good attempt to write a high-quality answer for each task.""}","[0,1,2]","""","""","""",""""
202,116,7,"[{""page_index"":0,""viewing_time"":1501}]",1501,instructions,4,187582,131,61c5edec03aa19ac7c1842d5,61ce1eaf3c1a84bceab6c661,60ea0984f30f7e0a9b839e3b,61ce1eaf3c1a84bceab6c661,"""","""","""","""","""",""""
203,116,7,"""",90480,survey-text,5,278069,131,61c5edec03aa19ac7c1842d5,61ce1eaf3c1a84bceab6c661,60ea0984f30f7e0a9b839e3b,61ce1eaf3c1a84bceab6c661,"{""Explanation"":""there are intelligent animals within the zoo. They are far more dexterous than they are given credit for, and they do watch their keepers daily. They likely figured out how to open a lock as has been seen with animals like octopi. ""}","""",test,"If the the gates in a zoo are closed, then the zoo animals do not escape. But suppose the gates in a zoo are closed, and then the animals do escape.","generate, all-constraints","the animals climed over the gates, the animals escaped through a hole, the zoo gates were not strong enough, the zookeeper forgot to lock the gates, some of the animals flew out because the roof was left open, or a worked opened the gate on purpose"
204,116,7,"""",81047,survey-text,6,359089,131,61c5edec03aa19ac7c1842d5,61ce1eaf3c1a84bceab6c661,60ea0984f30f7e0a9b839e3b,61ce1eaf3c1a84bceab6c661,"{""Explanation"":""the person breathed mainly through their nose, so they experienced less irritation to the mouth and bronchial tubes. Therefore the tubes did not spasm and cause a cough.""}","""",test,"If a person breathes in wildfire smoke, then they cough. But suppose a person breathes in wildfire smoke, and then they do not cough.","generate, all-constraints","they did not breathe in enough, they were wearing protective breathing equipment, they held their breath, they became unconscious, they took a cough suppressant, or they are less sensitive to smoke because they are a serial smoker"
205,116,7,"""",30912,survey-text,7,390004,131,61c5edec03aa19ac7c1842d5,61ce1eaf3c1a84bceab6c661,60ea0984f30f7e0a9b839e3b,61ce1eaf3c1a84bceab6c661,"{""Explanation"":""the water was not left in the freezer for a long enough period of time to solidify. ""}","""",test,"If water is put in the freezer, then it turns into ice. But suppose water is put in the freezer, and then it does not turn into ice.","generate, all-constraints","the freezer was off, the freezer is broken, or the freezer was set too warm"
206,116,7,"""",66618,survey-text,8,456624,131,61c5edec03aa19ac7c1842d5,61ce1eaf3c1a84bceab6c661,60ea0984f30f7e0a9b839e3b,61ce1eaf3c1a84bceab6c661,"{""Explanation"":""the symbol was inside of its protective case. When it was struck, there was no vibration as the cymbals were encased in the protective foam. ""}","""",test,"If a cymbal is hit with a drum stick, then it clangs. But suppose a cymbal is hit with a drum stick, and then it does not clang.","generate, all-constraints","the drumstick was made of soft material, the cymbal was padded, the cymbal was stuck, or that the cymbal was not hit hard enough"
207,116,7,"""",68811.99999999994,survey-text,9,525440,131,61c5edec03aa19ac7c1842d5,61ce1eaf3c1a84bceab6c661,60ea0984f30f7e0a9b839e3b,61ce1eaf3c1a84bceab6c661,"{""Explanation"":""the blue slushie has a high water content but little food coloring, meaning that the spill itself was mostly water with very little staining potential. ""}","""",test,"If a blue slushie is spilled on a carpet, then the carpet is stained blue. But suppose a blue slushie is spilled on a carpet, and then the carpet is not stained blue.","generate, all-constraints","the carpet was made of stain-resistant material, the carpet was the same color as the slushie, or that the carpet was treated with stain-resistant solution"
208,116,7,"""",46714,survey-text,10,572157,131,61c5edec03aa19ac7c1842d5,61ce1eaf3c1a84bceab6c661,60ea0984f30f7e0a9b839e3b,61ce1eaf3c1a84bceab6c661,"{""Explanation"":""the meteor fell into quicksand where it was immediately taken into the earth, never to be seen again. ""}","""",test,"If a meteor hits the ground, then a crater is made. But suppose a meteor hits the ground, and then a crater is not made.","generate, all-constraints","the meteor was tiny, there already was a hole in the ground, or the meteor hit the ground very lightly"
209,116,7,"""",115530,survey-text,11,687694,131,61c5edec03aa19ac7c1842d5,61ce1eaf3c1a84bceab6c661,60ea0984f30f7e0a9b839e3b,61ce1eaf3c1a84bceab6c661,"{""Explanation"":""they were caught by Superman who accelerated as he approached to match the speed of the falling person so that he could successfully and safely pull off the catch. This is has appeared in many Superman films and comics, therefore it is quite plausible. ""}","""",test,"If someone falls from a high height onto their outstretched arm, then they will break their wrist. But suppose someone falls from a high height onto their outstretched arm, and then they do not break their wrist.","generate, all-constraints","they landed on something soft, the person had resilient bones, the person was extremely light, or they landed in a way that their wrist bent instead of broke"
210,116,7,"""",14713,survey-text,12,702422,131,61c5edec03aa19ac7c1842d5,61ce1eaf3c1a84bceab6c661,60ea0984f30f7e0a9b839e3b,61ce1eaf3c1a84bceab6c661,"{""Q0"":""10"",""Q1"":""4"",""Q2"":""10"",""Q3"":""}","""","""","""","""",""""
211,120,3,"[{""page_index"":0,""viewing_time"":38535.5},{""page_index"":1,""viewing_time"":29966.899999999907},{""page_index"":2,""viewing_time"":79936},{""page_index"":3,""viewing_time"":23460.30000000028}]",171899.1000000001,instructions,0,171902,163,61c5edec03aa19ac7c1842d5,61dc4b99c3e76d8d0e0cc1cc,615ddab1e4f013092538b6c5,61dc4b99c3e76d8d0e0cc1cc,"""","""","""","""","""",""""
212,120,3,"""",222768.49999999953,survey-text,1,394678,163,61c5edec03aa19ac7c1842d5,61dc4b99c3e76d8d0e0cc1cc,615ddab1e4f013092538b6c5,61dc4b99c3e76d8d0e0cc1cc,"{""Q0"":""I commit to do my best to try to write high-quality explanations. I recognize that if I do not try my best to generate an explanation for each situation, I may not be paid.""}","""","""","""","""",""""
213,120,3,"[{""page_index"":0,""viewing_time"":12046.600000000559}]",12047.100000000559,instructions,2,406727,163,61c5edec03aa19ac7c1842d5,61dc4b99c3e76d8d0e0cc1cc,615ddab1e4f013092538b6c5,61dc4b99c3e76d8d0e0cc1cc,"""","""","""","""","""",""""
214,120,3,"""",33520.5,survey-multi-choice,3,440250,163,61c5edec03aa19ac7c1842d5,61dc4b99c3e76d8d0e0cc1cc,615ddab1e4f013092538b6c5,61dc4b99c3e76d8d0e0cc1cc,"{""Q0"":""Explanations for events."",""Q1"":""By writing text."",""Q2"":""Not making a good attempt to write a high-quality answer for each task.""}","[0,1,2]","""","""","""",""""
215,120,3,"[{""page_index"":0,""viewing_time"":4763.5}]",4763.9000000003725,instructions,4,445015,163,61c5edec03aa19ac7c1842d5,61dc4b99c3e76d8d0e0cc1cc,615ddab1e4f013092538b6c5,61dc4b99c3e76d8d0e0cc1cc,"""","""","""","""","""",""""
